Year,Month,Day,Time,Flight_Time_(s),Sync,Gyro_X,Gyro_Y,Gyro_Z,Accel_X,Accel_Y,Accel_Z,Quat_1,Quat_2,Quat_3,Quat_4,Aux_Volts,Current
2026,2,28,12:31:53.013,-2.034,72,0.0,0.0,0.0,-0.99,0.03,0.00,1.00000,0.00003,0.00003,0.00000,0.045,0.0000
2026,2,28,12:31:53.015,-2.032,74,0.0,0.0,0.0,-0.99,0.03,0.00,1.00000,0.00003,0.00003,0.00000,0.045,0.0000
2026,2,28,12:31:53.017,-2.030,76,-0.1,0.1,0.0,-0.99,0.03,0.00,1.00000,0.00003,0.00003,0.00000,0.045,0.0000
2026,2,28,12:31:53.019,-2.028,78,0.0,0.0,0.0,-0.99,0.03,0.00,1.00000,0.00003,0.00003,0.00000,0.045,0.0000
2026,2,28,12:31:53.021,-2.026,80,0.0,0.0,0.0,-0.99,0.03,0.00,1.00000,0.00003,0.00003,0.00000,0.045,0.0000
2026,2,28,12:31:53.023,-2.024,82,0.0,0.0,0.0,-0.99,0.03,0.00,1.00000,0.00003,0.00003,0.00000,0.045,0.0000
2026,2,28,12:31:53.025,-2.022,84,0.0,0.0,0.0,-0.99,0.03,0.00,1.00000,0.00003,0.00003,0.00000,0.045,0.0000
2026,2,28,12:31:53.027,-2.020,86,-0.1,0.0,0.0,-0.99,0.03,0.00,1.00000,0.00003,0.00003,0.00000,0.045,0.0000
2026,2,28,12:31:53.029,-2.018,88,-0.1,0.0,0.0,-0.99,0.03,0.00,1.00000,0.00003,0.00003,0.00000,0.045,0.0000
2026,2,28,12:31:53.031,-2.016,90,0.0,0.0,0.0,-0.99,0.03,0.00,1.00000,0.00003,0.00003,0.00000,0.045,0.0000
2026,2,28,12:31:53.033,-2.014,92,0.0,0.0,0.0,-1.00,0.03,0.00,1.00000,0.00003,0.00003,0.00000,0.045,0.0000
2026,2,28,12:31:53.035,-2.012,94,0.0,0.0,0.0,-0.99,0.03,0.00,1.00000,0.00003,0.00003,0.00000,0.045,0.0000
2026,2,28,12:31:53.037,-2.010,96,-0.1,0.0,0.0,-1.00,0.03,0.00,1.00000,0.00003,0.00003,0.00000,0.045,0.0000
2026,2,28,12:31:53.039,-2.008,98,-0.1,0.0,0.0,-0.99,0.03,0.00,1.00000,0.00003,0.00003,0.00000,0.045,0.0000
2026,2,28,12:31:53.041,-2.006,100,0.0,0.0,0.0,-0.99,0.03,0.00,1.00000,0.00003,0.00003,0.00000,0.045,0.0000
2026,2,28,12:31:53.043,-2.004,102,0.0,0.0,0.0,-0.99,0.03,0.00,1.00000,0.00003,0.00003,0.00000,0.045,0.0000
2026,2,28,12:31:53.045,-2.002,104,0.0,0.0,0.0,-0.99,0.03,0.00,1.00000,0.00003,0.00003,0.00000,0.045,0.0000
2026,2,28,12:31:53.047,-2.000,106,0.0,0.0,0.0,-0.99,0.03,0.00,1.00000,0.00003,0.00003,0.00000,0.044,0.0000
2026,2,28,12:31:53.049,-1.998,108,0.0,0.0,0.0,-0.99,0.03,0.00,1.00000,0.00003,0.00003,0.00000,0.045,0.0000
2026,2,28,12:31:53.051,-1.996,110,0.0,0.0,0.0,-0.99,0.03,0.00,1.00000,0.00003,0.00003,0.00000,0.045,0.0000
2026,2,28,12:31:53.053,-1.994,112,0.0,0.0,0.0,-0.99,0.03,0.00,1.00000,0.00003,0.00003,0.00000,0.045,0.0000
2026,2,28,12:31:53.055,-1.992,114,0.0,0.0,0.0,-0.99,0.03,0.00,1.00000,0.00003,0.00003,0.00000,0.044,0.0000
2026,2,28,12:31:53.057,-1.990,116,0.0,0.0,0.0,-0.99,0.03,0.00,1.00000,0.00003,0.00003,0.00000,0.044,0.0000
2026,2,28,12:31:53.059,-1.988,118,-0.1,0.0,0.0,-0.99,0.03,0.00,1.00000,0.00003,0.00003,0.00000,0.045,0.0000
2026,2,28,12:31:53.061,-1.986,120,-0.1,0.0,0.0,-0.99,0.03,0.00,1.00000,0.00003,0.00003,0.00000,0.045,0.0000
2026,2,28,12:31:53.063,-1.984,122,0.0,0.0,0.0,-0.99,0.03,0.00,1.00000,0.00003,0.00003,0.00000,0.045,0.0000
2026,2,28,12:31:53.065,-1.982,124,0.0,0.0,0.0,-0.99,0.03,0.00,1.00000,0.00003,0.00003,0.00000,0.045,0.0000
2026,2,28,12:31:53.067,-1.980,126,0.0,0.0,0.0,-0.99,0.03,0.00,1.00000,0.00003,0.00003,0.00000,0.045,0.0000
2026,2,28,12:31:53.069,-1.978,128,-0.1,0.1,0.0,-0.99,0.03,0.00,1.00000,0.00003,0.00003,0.00000,0.045,0.0000
2026,2,28,12:31:53.071,-1.976,130,0.0,0.0,0.0,-0.99,0.03,0.00,1.00000,0.00003,0.00003,0.00000,0.045,0.0000
2026,2,28,12:31:53.073,-1.974,132,0.0,0.0,0.0,-0.99,0.03,0.00,1.00000,0.00003,0.00003,0.00000,0.045,0.0000
2026,2,28,12:31:53.075,-1.972,134,0.0,0.0,0.0,-0.99,0.03,0.00,1.00000,0.00003,0.00003,0.00000,0.045,0.0000
2026,2,28,12:31:53.077,-1.970,136,0.0,0.0,0.0,-0.99,0.03,0.00,1.00000,0.00003,0.00003,0.00000,0.045,0.0000
2026,2,28,12:31:53.079,-1.968,138,0.0,0.0,0.0,-0.99,0.03,0.00,1.00000,0.00003,0.00003,0.00000,0.045,0.0000
2026,2,28,12:31:53.081,-1.966,140,-0.1,0.0,0.0,-0.99,0.03,0.00,1.00000,0.00003,0.00003,0.00000,0.045,0.0000
2026,2,28,12:31:53.083,-1.964,142,0.0,0.0,0.0,-0.99,0.03,0.00,1.00000,0.00003,0.00003,0.00000,0.045,0.0000
2026,2,28,12:31:53.085,-1.962,144,0.0,0.0,0.0,-0.99,0.03,0.00,1.00000,0.00003,0.00003,0.00000,0.046,0.0000
2026,2,28,12:31:53.087,-1.960,146,0.0,0.0,0.0,-0.99,0.03,0.00,1.00000,0.00003,0.00003,0.00000,0.045,0.0000
2026,2,28,12:31:53.089,-1.958,148,0.0,0.0,0.0,-0.99,0.03,0.00,1.00000,0.00003,0.00003,0.00000,0.044,0.0000
2026,2,28,12:31:53.091,-1.956,150,0.0,0.0,0.0,-0.99,0.03,0.00,1.00000,0.00003,0.00003,0.00000,0.045,0.0000
2026,2,28,12:31:53.093,-1.954,152,-0.1,0.0,0.0,-0.99,0.03,0.00,1.00000,0.00003,0.00003,0.00000,0.045,0.0000
2026,2,28,12:31:53.095,-1.952,154,-0.1,0.0,0.0,-0.99,0.03,0.00,1.00000,0.00003,0.00003,0.00000,0.045,0.0000
2026,2,28,12:31:53.097,-1.950,156,0.0,0.0,0.0,-0.99,0.03,0.00,1.00000,0.00003,0.00003,0.00000,0.045,0.0000
2026,2,28,12:31:53.099,-1.948,158,0.0,0.0,0.0,-0.99,0.03,0.00,1.00000,0.00003,0.00003,0.00000,0.045,0.0000
2026,2,28,12:31:53.101,-1.946,160,0.0,0.0,0.0,-0.99,0.03,0.00,1.00000,0.00003,0.00003,0.00000,0.045,0.0000
2026,2,28,12:31:53.103,-1.944,162,0.0,0.0,0.0,-0.99,0.03,0.00,1.00000,0.00003,0.00003,0.00000,0.045,0.0000
2026,2,28,12:31:53.105,-1.942,164,0.0,0.0,0.0,-0.99,0.03,0.00,1.00000,0.00003,0.00003,0.00000,0.045,0.0000
2026,2,28,12:31:53.107,-1.940,166,-0.1,0.0,0.0,-0.99,0.03,0.00,1.00000,0.00003,0.00003,0.00000,0.045,0.0000
2026,2,28,12:31:53.109,-1.938,168,0.0,0.0,0.0,-0.99,0.03,0.00,1.00000,0.00003,0.00003,0.00000,0.045,0.0000
2026,2,28,12:31:53.111,-1.936,170,0.0,0.0,0.0,-0.99,0.03,0.00,1.00000,0.00003,0.00003,0.00000,0.046,0.0000
2026,2,28,12:31:53.113,-1.934,172,0.0,0.0,0.0,-0.99,0.03,0.00,1.00000,0.00003,0.00003,0.00000,0.045,0.0000
2026,2,28,12:31:53.115,-1.932,174,0.0,0.0,0.0,-0.99,0.03,0.00,1.00000,0.00003,0.00003,0.00000,0.045,0.0000
2026,2,28,12:31:53.117,-1.930,176,0.0,0.0,0.0,-0.99,0.03,0.00,1.00000,0.00003,0.00003,0.00000,0.045,0.0000
2026,2,28,12:31:53.119,-1.928,178,0.0,0.0,0.0,-0.99,0.03,0.00,1.00000,0.00003,0.00003,0.00000,0.045,0.0000
2026,2,28,12:31:53.121,-1.926,180,0.0,0.0,0.0,-1.00,0.03,0.00,1.00000,0.00003,0.00003,0.00000,0.045,0.0000
2026,2,28,12:31:53.123,-1.924,182,0.0,0.0,0.0,-0.99,0.04,0.00,1.00000,0.00003,0.00003,0.00000,0.045,0.0000
2026,2,28,12:31:53.125,-1.922,184,0.0,0.0,0.0,-0.99,0.03,0.00,1.00000,0.00003,0.00003,0.00000,0.045,0.0000
2026,2,28,12:31:53.127,-1.920,186,0.0,0.0,0.0,-0.99,0.03,0.00,1.00000,0.00003,0.00003,0.00000,0.045,0.0000
2026,2,28,12:31:53.129,-1.918,188,0.0,0.0,0.0,-0.99,0.03,0.00,1.00000,0.00003,0.00003,0.00000,0.045,0.0000
2026,2,28,12:31:53.131,-1.916,190,0.0,0.0,0.0,-0.99,0.03,0.00,1.00000,0.00003,0.00003,0.00000,0.045,0.0000
2026,2,28,12:31:53.133,-1.914,192,0.0,0.0,0.0,-0.99,0.03,0.00,1.00000,0.00003,0.00003,0.00000,0.045,0.0000
2026,2,28,12:31:53.135,-1.912,194,0.0,0.0,0.0,-0.99,0.03,0.00,1.00000,0.00003,0.00003,0.00000,0.045,0.0000
2026,2,28,12:31:53.137,-1.910,196,-0.1,0.0,0.0,-0.99,0.03,0.00,1.00000,0.00003,0.00003,0.00000,0.046,0.0000
2026,2,28,12:31:53.139,-1.908,198,-0.1,0.0,0.0,-0.99,0.03,0.00,1.00000,0.00003,0.00003,0.00000,0.045,0.0000
2026,2,28,12:31:53.141,-1.906,200,0.0,0.0,0.0,-0.99,0.03,0.00,1.00000,0.00003,0.00003,0.00000,0.045,0.0000
2026,2,28,12:31:53.143,-1.904,202,0.0,0.0,0.0,-0.99,0.03,0.00,1.00000,0.00003,0.00003,0.00000,0.046,0.0000
2026,2,28,12:31:53.145,-1.902,204,0.0,0.0,0.0,-0.99,0.03,0.00,1.00000,0.00003,0.00003,0.00000,0.045,0.0000
2026,2,28,12:31:53.147,-1.900,206,-0.1,0.0,0.0,-0.99,0.03,0.00,1.00000,0.00003,0.00003,0.00000,0.045,0.0000
2026,2,28,12:31:53.149,-1.898,208,0.0,0.0,0.0,-0.99,0.04,0.00,1.00000,0.00003,0.00003,0.00000,0.045,0.0000
2026,2,28,12:31:53.151,-1.896,210,0.0,0.0,-0.1,-0.99,0.04,0.00,1.00000,0.00003,0.00003,0.00000,0.045,0.0000
2026,2,28,12:31:53.153,-1.894,212,-0.1,0.0,0.0,-0.99,0.03,0.00,1.00000,0.00003,0.00003,0.00000,0.045,0.0000
2026,2,28,12:31:53.155,-1.892,214,0.0,0.0,0.0,-0.99,0.03,0.00,1.00000,0.00003,0.00003,0.00000,0.045,0.0000
2026,2,28,12:31:53.157,-1.890,216,0.0,0.0,0.0,-0.99,0.03,0.00,1.00000,0.00003,0.00003,0.00000,0.045,0.0000
2026,2,28,12:31:53.159,-1.888,218,0.0,0.0,0.0,-0.99,0.03,0.00,1.00000,0.00003,0.00003,0.00000,0.045,0.0000
2026,2,28,12:31:53.161,-1.886,220,-0.1,0.0,0.0,-1.00,0.03,0.00,1.00000,0.00003,0.00003,0.00000,0.045,0.0000
2026,2,28,12:31:53.163,-1.884,222,0.0,0.0,0.0,-0.99,0.04,0.00,1.00000,0.00003,0.00003,0.00000,0.045,0.0000
2026,2,28,12:31:53.165,-1.882,224,0.0,0.0,0.0,-0.99,0.03,0.00,1.00000,0.00003,0.00003,0.00000,0.044,0.0000
2026,2,28,12:31:53.167,-1.880,226,-0.1,0.0,0.0,-0.99,0.03,0.00,1.00000,0.00003,0.00003,0.00000,0.045,0.0000
2026,2,28,12:31:53.169,-1.878,228,-0.1,0.0,0.0,-0.99,0.03,0.00,1.00000,0.00003,0.00003,0.00000,0.045,0.0000
2026,2,28,12:31:53.171,-1.876,230,0.0,0.0,0.0,-0.99,0.03,0.00,1.00000,0.00003,0.00003,0.00000,0.045,0.0000
2026,2,28,12:31:53.173,-1.874,232,-0.1,0.0,0.0,-0.99,0.03,0.00,1.00000,0.00003,0.00003,0.00000,0.045,0.0000
2026,2,28,12:31:53.175,-1.872,234,-0.1,0.0,0.0,-0.99,0.03,0.00,1.00000,0.00003,0.00003,0.00000,0.045,0.0000
2026,2,28,12:31:53.177,-1.870,236,0.0,0.0,0.0,-0.99,0.03,0.00,1.00000,0.00003,0.00003,0.00000,0.045,0.0000
2026,2,28,12:31:53.179,-1.868,238,-0.1,0.0,0.0,-0.99,0.03,0.00,1.00000,0.00003,0.00003,0.00000,0.045,0.0000
2026,2,28,12:31:53.181,-1.866,240,-0.1,0.0,-0.1,-0.99,0.03,0.00,1.00000,0.00003,0.00003,0.00000,0.045,0.0000
2026,2,28,12:31:53.183,-1.864,242,-0.1,0.0,0.0,-1.00,0.03,0.00,1.00000,0.00003,0.00003,0.00000,0.045,0.0000
2026,2,28,12:31:53.185,-1.862,244,-0.1,0.0,0.0,-0.99,0.04,0.00,1.00000,0.00003,0.00003,0.00000,0.045,0.0000
2026,2,28,12:31:53.187,-1.860,246,0.0,0.0,0.0,-0.99,0.03,0.00,1.00000,0.00003,0.00003,0.00000,0.045,0.0000
2026,2,28,12:31:53.189,-1.858,248,-0.1,0.0,0.0,-0.99,0.03,0.00,1.00000,0.00003,0.00000,0.00000,0.045,0.0000
2026,2,28,12:31:53.191,-1.856,0,-0.1,0.0,0.0,-0.99,0.03,0.00,1.00000,0.00003,0.00000,0.00000,0.045,0.0000
2026,2,28,12:31:53.193,-1.854,2,-0.1,0.0,-0.1,-0.99,0.04,0.00,1.00000,0.00003,0.00003,0.00000,0.045,0.0000
2026,2,28,12:31:53.195,-1.852,4,-0.1,0.0,0.0,-0.99,0.04,0.00,1.00000,0.00003,0.00003,0.00000,0.045,0.0000
2026,2,28,12:31:53.197,-1.850,6,-0.1,0.0,0.0,-0.99,0.04,0.00,1.00000,0.00003,0.00000,0.00000,0.045,0.0000
2026,2,28,12:31:53.199,-1.848,8,-0.1,0.0,0.0,-0.99,0.03,0.00,1.00000,0.00003,0.00000,0.00000,0.045,0.0000
2026,2,28,12:31:53.201,-1.846,10,-0.1,0.0,0.0,-0.99,0.04,0.00,1.00000,0.00000,0.00000,0.00000,0.045,0.0000
2026,2,28,12:31:53.203,-1.844,12,-0.1,0.0,0.0,-0.99,0.03,0.00,1.00000,0.00000,0.00000,0.00000,0.045,0.0000
2026,2,28,12:31:53.205,-1.842,14,0.0,0.0,0.0,-0.99,0.03,0.00,1.00000,0.00000,0.00000,0.00000,0.045,0.0000
2026,2,28,12:31:53.207,-1.840,16,-0.1,0.0,0.0,-0.99,0.03,0.00,1.00000,0.00000,0.00000,0.00000,0.045,0.0000
2026,2,28,12:31:53.209,-1.838,18,-0.1,0.0,0.0,-0.99,0.03,0.00,1.00000,0.00000,0.00000,0.00000,0.045,0.0000
2026,2,28,12:31:53.211,-1.836,20,-0.1,0.0,0.0,-0.99,0.03,0.00,1.00000,0.00000,0.00000,0.00000,0.045,0.0000
2026,2,28,12:31:53.213,-1.834,22,0.0,0.0,0.0,-0.99,0.03,0.00,1.00000,0.00000,0.00000,0.00000,0.045,0.0000
2026,2,28,12:31:53.215,-1.832,24,-0.1,0.0,0.0,-0.99,0.03,0.00,1.00000,0.00000,0.00000,0.00000,0.045,0.0000
2026,2,28,12:31:53.217,-1.830,26,-0.1,0.0,0.0,-0.99,0.03,0.00,1.00000,0.00000,0.00000,0.00000,0.045,0.0000
2026,2,28,12:31:53.219,-1.828,28,0.0,-0.2,0.0,-0.99,0.03,0.00,1.00000,0.00000,0.00000,0.00000,0.045,0.0000
2026,2,28,12:31:53.221,-1.826,30,-0.1,0.0,0.0,-0.99,0.03,0.00,1.00000,0.00000,0.00000,0.00000,0.045,0.0000
2026,2,28,12:31:53.223,-1.824,32,-0.1,0.0,0.0,-0.99,0.03,0.00,1.00000,0.00000,0.00000,0.00000,0.045,0.0000
2026,2,28,12:31:53.225,-1.822,34,0.0,0.0,0.0,-0.99,0.03,0.00,1.00000,0.00000,0.00000,0.00000,0.045,0.0000
2026,2,28,12:31:53.227,-1.820,36,0.0,0.0,0.0,-1.00,0.03,0.00,1.00000,0.00000,0.00000,0.00000,0.045,0.0000
2026,2,28,12:31:53.229,-1.818,38,-0.1,0.0,0.0,-0.99,0.03,0.00,1.00000,0.00000,0.00000,0.00000,0.045,0.0000
2026,2,28,12:31:53.231,-1.816,40,0.1,0.0,0.0,-0.99,0.03,0.00,1.00000,0.00000,0.00000,0.00000,0.045,0.0000
2026,2,28,12:31:53.233,-1.814,42,0.0,0.0,0.0,-0.99,0.03,0.00,1.00000,0.00000,0.00000,0.00000,0.045,0.0000
2026,2,28,12:31:53.235,-1.812,44,0.0,0.0,0.0,-0.99,0.03,0.00,1.00000,0.00000,0.00000,0.00000,0.045,0.0000
2026,2,28,12:31:53.237,-1.810,46,-0.1,0.0,0.0,-0.99,0.03,0.00,1.00000,0.00000,0.00000,0.00000,0.045,0.0000
2026,2,28,12:31:53.239,-1.808,48,-0.1,0.0,0.0,-0.99,0.03,0.00,1.00000,0.00000,0.00000,0.00000,0.045,0.0000
2026,2,28,12:31:53.241,-1.806,50,0.0,0.0,0.0,-0.99,0.03,0.00,1.00000,0.00000,0.00000,0.00000,0.045,0.0000
2026,2,28,12:31:53.243,-1.804,52,0.0,0.0,0.0,-0.99,0.04,0.00,1.00000,0.00000,0.00000,0.00000,0.045,0.0000
2026,2,28,12:31:53.245,-1.802,54,-0.1,0.0,0.0,-0.99,0.03,0.00,1.00000,0.00000,0.00000,0.00000,0.045,0.0000
2026,2,28,12:31:53.247,-1.800,56,0.0,0.0,0.0,-0.99,0.03,0.00,1.00000,0.00000,0.00000,0.00000,0.045,0.0000
2026,2,28,12:31:53.249,-1.798,58,0.0,0.0,0.0,-0.99,0.03,0.00,1.00000,0.00000,0.00000,0.00000,0.045,0.0000
2026,2,28,12:31:53.251,-1.796,60,-0.1,0.0,0.0,-0.99,0.03,0.00,1.00000,0.00000,0.00000,0.00000,0.045,0.0000
2026,2,28,12:31:53.253,-1.794,62,0.0,0.0,0.0,-0.99,0.03,0.00,1.00000,0.00000,0.00000,0.00000,0.045,0.0000
2026,2,28,12:31:53.255,-1.792,64,-0.1,0.0,0.0,-0.99,0.03,0.00,1.00000,0.00000,0.00000,0.00000,0.045,0.0000
2026,2,28,12:31:53.257,-1.790,66,0.0,0.0,0.0,-0.99,0.03,0.00,1.00000,0.00000,0.00000,0.00000,0.045,0.0000
2026,2,28,12:31:53.259,-1.788,68,0.0,0.0,0.0,-0.99,0.03,0.00,1.00000,0.00000,0.00000,0.00000,0.045,0.0000
2026,2,28,12:31:53.261,-1.786,70,0.0,0.0,0.0,-0.99,0.03,0.00,1.00000,0.00000,0.00000,0.00000,0.045,0.0000
2026,2,28,12:31:53.263,-1.784,72,-0.1,0.0,0.0,-0.99,0.03,0.00,1.00000,0.00000,0.00000,0.00000,0.045,0.0000
2026,2,28,12:31:53.265,-1.782,74,0.0,0.0,0.0,-0.99,0.03,0.00,1.00000,0.00000,0.00000,0.00000,0.045,0.0000
2026,2,28,12:31:53.267,-1.780,76,0.0,0.0,0.0,-0.99,0.03,0.00,1.00000,0.00000,0.00000,0.00000,0.045,0.0000
2026,2,28,12:31:53.269,-1.778,78,0.0,0.0,-0.1,-0.99,0.03,0.00,1.00000,0.00000,0.00000,0.00000,0.045,0.0000
2026,2,28,12:31:53.271,-1.776,80,-0.1,0.0,0.0,-0.99,0.03,0.00,1.00000,0.00000,0.00000,0.00000,0.045,0.0000
2026,2,28,12:31:53.273,-1.774,82,0.0,0.0,-0.1,-0.99,0.03,0.00,1.00000,0.00000,0.00000,0.00000,0.045,0.0000
2026,2,28,12:31:53.275,-1.772,84,0.0,0.0,0.0,-0.99,0.03,0.00,1.00000,0.00000,0.00000,0.00000,0.045,0.0000
2026,2,28,12:31:53.277,-1.770,86,0.0,0.0,0.0,-0.99,0.03,0.00,1.00000,0.00000,0.00000,0.00000,0.045,0.0000
2026,2,28,12:31:53.279,-1.768,88,0.0,0.0,0.0,-0.99,0.03,0.00,1.00000,0.00000,0.00000,0.00000,0.045,0.0000
2026,2,28,12:31:53.281,-1.766,90,0.1,0.0,0.0,-0.99,0.03,0.00,1.00000,0.00000,0.00000,0.00000,0.045,0.0000
2026,2,28,12:31:53.283,-1.764,92,0.0,0.0,0.0,-0.99,0.03,0.00,1.00000,0.00000,0.00000,0.00000,0.046,0.0000
2026,2,28,12:31:53.285,-1.762,94,0.0,0.0,0.0,-0.99,0.03,0.00,1.00000,0.00000,0.00000,0.00000,0.045,0.0000
2026,2,28,12:31:53.287,-1.760,96,-0.1,0.0,0.0,-0.99,0.03,0.00,1.00000,0.00000,0.00000,0.00000,0.045,0.0000
2026,2,28,12:31:53.289,-1.758,98,0.0,0.0,0.0,-0.99,0.03,0.00,1.00000,0.00000,0.00000,0.00000,0.045,0.0000
2026,2,28,12:31:53.291,-1.756,100,0.0,0.0,0.0,-0.99,0.03,0.00,1.00000,0.00000,0.00000,0.00000,0.045,0.0000
2026,2,28,12:31:53.293,-1.754,102,0.0,0.0,0.0,-0.99,0.03,0.00,1.00000,0.00000,0.00000,0.00000,0.045,0.0000
2026,2,28,12:31:53.295,-1.752,104,0.0,0.0,0.0,-0.99,0.03,0.00,1.00000,0.00000,0.00000,0.00000,0.045,0.0000
2026,2,28,12:31:53.297,-1.750,106,0.0,0.0,0.0,-0.99,0.03,0.00,1.00000,0.00000,0.00000,0.00000,0.045,0.0000
2026,2,28,12:31:53.299,-1.748,108,0.0,0.0,0.0,-0.99,0.03,0.00,1.00000,0.00000,0.00000,0.00000,0.045,0.0000
2026,2,28,12:31:53.301,-1.746,110,0.0,0.0,0.0,-0.99,0.03,0.00,1.00000,0.00000,0.00000,0.00000,0.045,0.0000
2026,2,28,12:31:53.303,-1.744,112,0.0,0.0,0.0,-0.99,0.03,0.00,1.00000,0.00000,0.00000,0.00000,0.045,0.0000
2026,2,28,12:31:53.305,-1.742,114,0.0,0.0,0.0,-0.99,0.03,0.00,1.00000,0.00000,0.00000,0.00000,0.045,0.0000
2026,2,28,12:31:53.307,-1.740,116,0.0,0.0,0.0,-0.99,0.03,0.00,1.00000,0.00000,0.00000,0.00000,0.044,0.0000
2026,2,28,12:31:53.309,-1.738,118,0.0,0.0,0.0,-0.99,0.03,0.00,1.00000,0.00000,0.00000,0.00000,0.046,0.0000
2026,2,28,12:31:53.311,-1.736,120,-0.1,0.0,0.0,-0.99,0.03,0.00,1.00000,0.00000,0.00000,0.00000,0.045,0.0000
2026,2,28,12:31:53.313,-1.734,122,0.0,0.0,0.0,-0.99,0.03,0.00,1.00000,0.00000,0.00000,0.00000,0.046,0.0000
2026,2,28,12:31:53.315,-1.732,124,0.0,0.0,0.0,-0.99,0.03,0.00,1.00000,0.00000,0.00000,0.00000,0.045,0.0000
2026,2,28,12:31:53.317,-1.730,126,0.0,0.0,0.0,-0.99,0.03,0.00,1.00000,0.00000,0.00000,0.00000,0.045,0.0000
2026,2,28,12:31:53.319,-1.728,128,0.0,0.0,0.0,-0.99,0.03,0.00,1.00000,0.00000,0.00000,0.00000,0.045,0.0000
2026,2,28,12:31:53.321,-1.726,130,0.0,0.0,0.0,-0.99,0.03,0.00,1.00000,0.00000,0.00000,0.00000,0.045,0.0000
2026,2,28,12:31:53.323,-1.724,132,0.0,0.0,0.0,-0.99,0.03,0.00,1.00000,0.00000,0.00000,0.00000,0.045,0.0000
2026,2,28,12:31:53.325,-1.722,134,0.0,0.0,0.0,-0.99,0.03,0.00,1.00000,0.00000,0.00000,0.00000,0.045,0.0000
2026,2,28,12:31:53.327,-1.720,136,-0.1,0.0,0.0,-0.99,0.03,0.00,1.00000,0.00000,0.00000,0.00000,0.045,0.0000
2026,2,28,12:31:53.329,-1.718,138,-0.1,0.0,0.0,-0.99,0.03,0.00,1.00000,0.00000,0.00000,0.00000,0.045,0.0000
2026,2,28,12:31:53.331,-1.716,140,0.0,0.0,0.0,-0.99,0.03,0.00,1.00000,0.00000,0.00000,0.00000,0.045,0.0000
2026,2,28,12:31:53.333,-1.714,142,0.0,0.0,0.0,-0.99,0.03,0.00,1.00000,0.00000,0.00000,0.00000,0.045,0.0000
2026,2,28,12:31:53.335,-1.712,144,0.0,0.0,0.0,-0.99,0.03,0.00,1.00000,0.00000,0.00000,0.00000,0.045,0.0000
2026,2,28,12:31:53.337,-1.710,146,0.0,0.0,0.0,-0.99,0.03,0.00,1.00000,0.00000,0.00000,0.00000,0.045,0.0000
2026,2,28,12:31:53.339,-1.708,148,0.0,0.0,0.0,-0.99,0.03,0.00,1.00000,0.00000,0.00000,0.00000,0.045,0.0000
2026,2,28,12:31:53.341,-1.706,150,0.0,0.0,0.0,-0.99,0.03,0.00,1.00000,0.00000,0.00000,0.00000,0.045,0.0000
2026,2,28,12:31:53.343,-1.704,152,0.0,0.0,0.0,-0.99,0.03,0.00,1.00000,0.00000,0.00000,0.00000,0.045,0.0000
2026,2,28,12:31:53.345,-1.702,154,-0.1,0.0,0.0,-0.99,0.03,0.00,1.00000,0.00000,0.00000,0.00000,0.045,0.0000
2026,2,28,12:31:53.347,-1.700,156,0.0,0.0,0.0,-0.99,0.03,0.00,1.00000,0.00000,0.00000,0.00000,0.045,0.0000
2026,2,28,12:31:53.349,-1.698,158,-0.1,0.0,0.0,-0.99,0.03,0.00,1.00000,0.00000,0.00000,0.00000,0.045,0.0000
2026,2,28,12:31:53.351,-1.696,160,-0.1,0.0,0.0,-0.99,0.03,0.00,1.00000,0.00000,0.00000,0.00000,0.044,0.0000
2026,2,28,12:31:53.353,-1.694,162,0.0,0.0,0.0,-0.99,0.03,0.00,1.00000,0.00000,0.00000,0.00000,0.045,0.0000
2026,2,28,12:31:53.355,-1.692,164,0.0,0.0,0.0,-0.99,0.03,0.00,1.00000,0.00000,0.00000,0.00000,0.045,0.0000
2026,2,28,12:31:53.357,-1.690,166,0.0,0.0,0.0,-0.99,0.03,0.00,1.00000,0.00000,0.00000,0.00000,0.045,0.0000
2026,2,28,12:31:53.359,-1.688,168,0.0,0.0,0.0,-0.99,0.03,0.00,1.00000,0.00000,0.00000,0.00000,0.045,0.0000
2026,2,28,12:31:53.361,-1.686,170,0.1,0.0,0.0,-0.99,0.03,0.00,1.00000,0.00000,0.00000,0.00000,0.044,0.0000
2026,2,28,12:31:53.363,-1.684,172,0.0,0.0,0.0,-0.99,0.03,0.00,1.00000,0.00000,0.00000,0.00000,0.045,0.0000
2026,2,28,12:31:53.365,-1.682,174,0.0,0.0,0.0,-0.99,0.03,0.00,1.00000,0.00000,0.00000,0.00000,0.045,0.0000
2026,2,28,12:31:53.367,-1.680,176,0.0,0.0,0.0,-0.99,0.03,0.00,1.00000,0.00000,0.00000,0.00000,0.045,0.0000
2026,2,28,12:31:53.369,-1.678,178,0.0,0.0,0.0,-0.99,0.03,0.00,1.00000,0.00000,0.00000,0.00000,0.045,0.0000
2026,2,28,12:31:53.371,-1.676,180,0.0,0.0,0.0,-0.99,0.03,0.00,1.00000,0.00000,0.00000,0.00000,0.045,0.0000
2026,2,28,12:31:53.373,-1.674,182,-0.1,0.0,0.0,-0.99,0.03,0.00,1.00000,0.00000,0.00000,0.00000,0.045,0.0000
2026,2,28,12:31:53.375,-1.672,184,0.0,0.0,0.0,-0.99,0.03,0.00,1.00000,0.00000,0.00000,0.00000,0.045,0.0000
2026,2,28,12:31:53.377,-1.670,186,-0.1,0.0,0.0,-0.99,0.03,0.00,1.00000,0.00000,0.00000,0.00000,0.045,0.0000
2026,2,28,12:31:53.379,-1.668,188,0.0,0.0,0.0,-0.99,0.03,0.00,1.00000,0.00000,0.00000,0.00000,0.045,0.0000
2026,2,28,12:31:53.381,-1.666,190,0.0,0.0,0.0,-0.99,0.03,0.00,1.00000,0.00000,0.00000,0.00000,0.045,0.0000
2026,2,28,12:31:53.383,-1.664,192,-0.1,0.0,0.0,-0.99,0.03,0.00,1.00000,0.00000,0.00000,0.00000,0.045,0.0000
2026,2,28,12:31:53.385,-1.662,194,0.0,0.0,0.0,-0.99,0.03,0.00,1.00000,0.00000,0.00000,0.00000,0.045,0.0000
2026,2,28,12:31:53.387,-1.660,196,0.0,0.0,0.0,-0.99,0.03,0.00,1.00000,0.00000,0.00000,0.00000,0.045,0.0000
2026,2,28,12:31:53.389,-1.658,198,0.0,0.0,0.0,-0.99,0.03,0.00,1.00000,0.00000,0.00000,0.00000,0.045,0.0000
2026,2,28,12:31:53.391,-1.656,200,0.0,0.0,0.0,-0.99,0.03,0.00,1.00000,0.00000,0.00000,0.00000,0.045,0.0000
2026,2,28,12:31:53.393,-1.654,202,0.0,0.0,0.0,-0.99,0.03,0.00,1.00000,0.00000,0.00000,0.00000,0.045,0.0000
2026,2,28,12:31:53.395,-1.652,204,0.0,0.0,0.0,-0.99,0.03,0.00,1.00000,0.00000,0.00000,0.00000,0.045,0.0000
2026,2,28,12:31:53.397,-1.650,206,0.0,0.0,0.0,-1.00,0.03,0.00,1.00000,0.00000,0.00000,0.00000,0.045,0.0000
2026,2,28,12:31:53.399,-1.648,208,0.0,0.0,0.0,-0.99,0.03,0.00,1.00000,0.00000,0.00000,0.00000,0.045,0.0000
2026,2,28,12:31:53.401,-1.646,210,0.0,0.0,0.0,-0.99,0.03,0.00,1.00000,0.00000,0.00000,0.00000,0.046,0.0000
2026,2,28,12:31:53.403,-1.644,212,0.1,0.0,0.0,-0.99,0.03,0.00,1.00000,0.00000,0.00000,0.00000,0.045,0.0000
2026,2,28,12:31:53.405,-1.642,214,0.0,0.0,0.0,-0.99,0.03,0.00,1.00000,0.00000,0.00000,0.00000,0.046,0.0000
2026,2,28,12:31:53.407,-1.640,216,0.0,0.0,0.0,-0.99,0.03,0.00,1.00000,0.00000,0.00000,0.00000,0.045,0.0000
2026,2,28,12:31:53.409,-1.638,218,0.0,0.0,0.0,-0.99,0.03,0.00,1.00000,0.00000,0.00000,0.00000,0.044,0.0000
2026,2,28,12:31:53.411,-1.636,220,0.0,0.0,0.0,-0.99,0.03,0.00,1.00000,0.00000,0.00000,0.00000,0.045,0.0000
2026,2,28,12:31:53.413,-1.634,222,0.0,0.0,0.0,-0.99,0.03,0.00,1.00000,0.00000,0.00000,0.00000,0.045,0.0000
2026,2,28,12:31:53.415,-1.632,224,0.0,0.0,0.0,-0.99,0.03,0.00,1.00000,0.00000,0.00000,0.00000,0.045,0.0000
2026,2,28,12:31:53.417,-1.630,226,0.1,0.0,0.0,-1.00,0.03,0.00,1.00000,0.00000,0.00000,0.00000,0.045,0.0000
2026,2,28,12:31:53.419,-1.628,228,0.0,0.0,0.0,-0.99,0.03,0.00,1.00000,0.00000,0.00000,0.00000,0.045,0.0000
2026,2,28,12:31:53.421,-1.626,230,0.0,0.0,0.0,-0.99,0.03,0.00,1.00000,0.00000,0.00000,0.00000,0.045,0.0000
2026,2,28,12:31:53.423,-1.624,232,0.0,0.0,0.0,-0.99,0.03,0.00,1.00000,0.00000,0.00000,0.00000,0.045,0.0000
2026,2,28,12:31:53.425,-1.622,234,0.1,0.0,0.0,-0.99,0.03,0.00,1.00000,0.00000,0.00000,0.00000,0.045,0.0000
2026,2,28,12:31:53.427,-1.620,236,0.0,0.0,0.0,-0.99,0.03,0.00,1.00000,0.00000,0.00000,0.00000,0.045,0.0000
2026,2,28,12:31:53.429,-1.618,238,0.0,0.0,0.0,-0.99,0.03,0.00,1.00000,0.00000,0.00000,0.00000,0.045,0.0000
2026,2,28,12:31:53.431,-1.616,240,0.1,0.0,0.0,-0.99,0.03,0.00,1.00000,0.00000,0.00000,0.00000,0.045,0.0000
2026,2,28,12:31:53.433,-1.614,242,0.0,0.0,0.0,-0.99,0.03,0.00,1.00000,0.00000,0.00000,0.00000,0.045,0.0000
2026,2,28,12:31:53.435,-1.612,244,0.0,0.0,0.0,-0.99,0.03,0.00,1.00000,0.00000,0.00000,0.00000,0.045,0.0000
2026,2,28,12:31:53.437,-1.610,246,0.0,0.0,0.0,-0.99,0.03,0.00,1.00000,0.00000,0.00000,0.00000,0.045,0.0000
2026,2,28,12:31:53.439,-1.608,248,-0.1,0.0,0.0,-0.99,0.03,0.00,1.00000,0.00000,0.00000,0.00000,0.045,0.0000
2026,2,28,12:31:53.441,-1.606,0,0.0,0.0,0.0,-0.99,0.03,0.00,1.00000,0.00000,0.00000,0.00000,0.045,0.0000
2026,2,28,12:31:53.443,-1.604,2,0.0,0.0,0.0,-0.99,0.03,0.00,1.00000,0.00000,0.00000,0.00000,0.045,0.0000
2026,2,28,12:31:53.445,-1.602,4,0.0,0.0,0.0,-0.99,0.03,0.00,1.00000,0.00000,0.00000,0.00000,0.045,0.0000
2026,2,28,12:31:53.447,-1.600,6,0.0,0.0,0.0,-0.99,0.03,0.00,1.00000,0.00000,0.00000,0.00000,0.045,0.0000
2026,2,28,12:31:53.449,-1.598,8,0.0,0.0,0.0,-0.99,0.03,0.00,1.00000,0.00003,0.00000,0.00000,0.045,0.0000
2026,2,28,12:31:53.451,-1.596,10,0.0,0.0,0.0,-1.00,0.03,0.00,1.00000,0.00003,0.00000,0.00000,0.045,0.0000
2026,2,28,12:31:53.453,-1.594,12,0.0,0.0,0.0,-0.99,0.03,0.00,1.00000,0.00003,0.00000,0.00000,0.045,0.0000
2026,2,28,12:31:53.455,-1.592,14,0.0,0.0,0.0,-0.99,0.03,0.00,1.00000,0.00003,0.00000,0.00000,0.045,0.0000
2026,2,28,12:31:53.457,-1.590,16,0.0,0.0,0.0,-0.99,0.03,0.00,1.00000,0.00003,0.00000,0.00000,0.045,0.0000
2026,2,28,12:31:53.459,-1.588,18,0.0,0.0,0.0,-0.99,0.03,0.00,1.00000,0.00003,0.00000,0.00000,0.045,0.0000
2026,2,28,12:31:53.461,-1.586,20,-0.1,0.0,0.0,-0.99,0.03,0.00,1.00000,0.00003,0.00000,0.00000,0.045,0.0000
2026,2,28,12:31:53.463,-1.584,22,0.0,0.0,0.0,-0.99,0.03,0.00,1.00000,0.00003,0.00000,0.00000,0.045,0.0000
2026,2,28,12:31:53.465,-1.582,24,0.0,0.0,0.0,-0.99,0.03,0.00,1.00000,0.00003,0.00000,0.00000,0.044,0.0000
2026,2,28,12:31:53.467,-1.580,26,0.0,0.0,0.0,-0.99,0.03,0.00,1.00000,0.00003,0.00000,0.00000,0.045,0.0000
2026,2,28,12:31:53.469,-1.578,28,0.1,0.0,0.0,-0.99,0.03,0.00,1.00000,0.00003,0.00000,0.00000,0.045,0.0000
2026,2,28,12:31:53.471,-1.576,30,-0.1,0.0,0.0,-0.99,0.03,0.00,1.00000,0.00003,0.00000,0.00000,0.045,0.0000
2026,2,28,12:31:53.473,-1.574,32,0.0,0.0,0.0,-0.99,0.03,0.00,1.00000,0.00003,0.00000,0.00000,0.045,0.0000
2026,2,28,12:31:53.475,-1.572,34,0.0,0.0,0.0,-0.99,0.03,0.00,1.00000,0.00003,0.00000,0.00000,0.045,0.0000
2026,2,28,12:31:53.477,-1.570,36,0.0,0.0,0.0,-0.99,0.03,0.00,1.00000,0.00003,0.00000,0.00000,0.045,0.0000
2026,2,28,12:31:53.479,-1.568,38,0.0,0.0,0.0,-0.99,0.04,0.00,1.00000,0.00003,0.00000,0.00000,0.045,0.0000
2026,2,28,12:31:53.481,-1.566,40,0.0,0.0,0.0,-0.99,0.03,0.00,1.00000,0.00003,0.00000,0.00000,0.045,0.0000
2026,2,28,12:31:53.483,-1.564,42,-0.1,0.0,0.0,-0.99,0.04,0.00,1.00000,0.00003,0.00000,0.00000,0.045,0.0000
2026,2,28,12:31:53.485,-1.562,44,-0.1,0.0,0.0,-0.99,0.03,0.00,1.00000,0.00003,0.00000,0.00000,0.045,0.0000
2026,2,28,12:31:53.487,-1.560,46,0.0,0.0,0.0,-0.99,0.03,0.00,1.00000,0.00003,0.00000,0.00000,0.045,0.0000
2026,2,28,12:31:53.489,-1.558,48,0.0,0.0,0.0,-0.99,0.03,0.00,1.00000,0.00003,0.00000,0.00000,0.045,0.0000
2026,2,28,12:31:53.491,-1.556,50,0.0,0.0,0.0,-0.99,0.03,0.00,1.00000,0.00003,0.00000,0.00000,0.044,0.0000
2026,2,28,12:31:53.493,-1.554,52,0.0,0.0,0.0,-1.00,0.03,0.00,1.00000,0.00003,0.00000,0.00000,0.045,0.0000
2026,2,28,12:31:53.495,-1.552,54,0.0,0.0,0.0,-0.99,0.03,0.00,1.00000,0.00003,0.00000,0.00000,0.045,0.0000
2026,2,28,12:31:53.497,-1.550,56,0.0,0.1,0.0,-0.99,0.03,0.00,1.00000,0.00003,0.00000,0.00000,0.045,0.0000
2026,2,28,12:31:53.499,-1.548,58,0.0,0.0,0.0,-0.99,0.03,0.00,1.00000,0.00003,0.00000,0.00000,0.044,0.0000
2026,2,28,12:31:53.501,-1.546,60,0.0,0.0,0.0,-0.99,0.03,0.00,1.00000,0.00003,0.00000,0.00000,0.045,0.0000
2026,2,28,12:31:53.503,-1.544,62,0.0,0.0,0.0,-0.99,0.03,0.00,1.00000,0.00003,0.00000,0.00000,0.045,0.0000
2026,2,28,12:31:53.505,-1.542,64,-0.1,0.0,0.0,-0.99,0.03,0.00,1.00000,0.00003,0.00000,0.00000,0.045,0.0000
2026,2,28,12:31:53.507,-1.540,66,0.0,0.0,0.0,-0.99,0.03,0.00,1.00000,0.00003,0.00000,0.00000,0.045,0.0000
2026,2,28,12:31:53.509,-1.538,68,0.0,0.0,0.0,-0.99,0.03,0.00,1.00000,0.00003,0.00000,0.00000,0.045,0.0000
2026,2,28,12:31:53.511,-1.536,70,0.0,0.0,0.0,-0.99,0.03,0.00,1.00000,0.00003,0.00000,0.00000,0.045,0.0000
2026,2,28,12:31:53.513,-1.534,72,0.0,0.0,0.0,-0.99,0.03,0.00,1.00000,0.00003,0.00000,0.00000,0.045,0.0000
2026,2,28,12:31:53.515,-1.532,74,0.0,0.0,0.0,-0.99,0.03,0.00,1.00000,0.00003,0.00000,0.00000,0.044,0.0000
2026,2,28,12:31:53.517,-1.530,76,0.0,0.0,0.0,-0.99,0.03,0.00,1.00000,0.00003,0.00000,0.00000,0.045,0.0000
2026,2,28,12:31:53.519,-1.528,78,0.0,0.0,0.0,-0.99,0.03,0.00,1.00000,0.00003,0.00000,0.00000,0.045,0.0000
2026,2,28,12:31:53.521,-1.526,80,0.0,0.0,0.0,-0.99,0.03,0.00,1.00000,0.00003,0.00000,0.00000,0.045,0.0000
2026,2,28,12:31:53.523,-1.524,82,0.0,0.0,0.0,-0.99,0.03,0.00,1.00000,0.00003,0.00000,0.00000,0.045,0.0000
2026,2,28,12:31:53.525,-1.522,84,0.0,0.0,0.0,-0.99,0.03,0.00,1.00000,0.00003,0.00000,0.00000,0.045,0.0000
2026,2,28,12:31:53.527,-1.520,86,-0.1,0.0,0.0,-0.99,0.03,0.00,1.00000,0.00003,0.00000,0.00000,0.045,0.0000
2026,2,28,12:31:53.529,-1.518,88,0.0,0.0,0.0,-0.99,0.03,0.00,1.00000,0.00003,0.00000,0.00000,0.045,0.0000
2026,2,28,12:31:53.531,-1.516,90,0.0,0.0,0.0,-0.99,0.04,0.00,1.00000,0.00003,0.00000,0.00000,0.045,0.0000
2026,2,28,12:31:53.533,-1.514,92,-0.1,0.0,0.0,-1.00,0.04,0.00,1.00000,0.00003,0.00000,0.00000,0.045,0.0000
2026,2,28,12:31:53.535,-1.512,94,0.0,0.0,0.0,-0.99,0.04,0.00,1.00000,0.00003,0.00000,0.00000,0.045,0.0000
2026,2,28,12:31:53.537,-1.510,96,0.0,0.0,0.0,-0.99,0.04,0.00,1.00000,0.00003,0.00000,0.00000,0.045,0.0000
2026,2,28,12:31:53.539,-1.508,98,0.0,0.0,0.0,-0.99,0.03,0.00,1.00000,0.00003,0.00000,0.00000,0.045,0.0000
2026,2,28,12:31:53.541,-1.506,100,0.0,0.0,0.0,-0.99,0.03,0.00,1.00000,0.00003,0.00000,0.00000,0.045,0.0000
2026,2,28,12:31:53.543,-1.504,102,0.0,0.0,0.0,-0.99,0.03,0.00,1.00000,0.00003,0.00000,0.00000,0.045,0.0000
2026,2,28,12:31:53.545,-1.502,104,0.0,0.0,0.0,-0.99,0.03,0.00,1.00000,0.00003,0.00000,0.00000,0.045,0.0000
2026,2,28,12:31:53.547,-1.500,106,-0.1,0.0,0.0,-0.99,0.03,0.00,1.00000,0.00003,0.00000,0.00000,0.045,0.0000
2026,2,28,12:31:53.549,-1.498,108,0.0,0.0,0.0,-0.99,0.04,0.00,1.00000,0.00003,0.00000,0.00000,0.045,0.0000
2026,2,28,12:31:53.551,-1.496,110,0.0,0.0,0.0,-0.99,0.03,0.00,1.00000,0.00003,0.00000,0.00000,0.045,0.0000
2026,2,28,12:31:53.553,-1.494,112,0.0,0.0,0.0,-0.99,0.03,0.00,1.00000,0.00003,0.00000,0.00000,0.045,0.0000
2026,2,28,12:31:53.555,-1.492,114,0.0,0.0,0.0,-0.99,0.03,0.00,1.00000,0.00003,0.00000,0.00000,0.045,0.0000
2026,2,28,12:31:53.557,-1.490,116,0.0,0.0,0.0,-0.99,0.03,0.00,1.00000,0.00003,0.00000,0.00000,0.045,0.0000
2026,2,28,12:31:53.559,-1.488,118,0.0,0.0,0.0,-0.99,0.03,0.00,1.00000,0.00003,0.00000,0.00000,0.046,0.0000
2026,2,28,12:31:53.561,-1.486,120,0.0,0.0,0.0,-0.99,0.03,0.00,1.00000,0.00003,0.00000,0.00000,0.045,0.0000
2026,2,28,12:31:53.563,-1.484,122,0.0,0.0,0.0,-0.99,0.03,0.00,1.00000,0.00003,0.00000,0.00000,0.045,0.0000
2026,2,28,12:31:53.565,-1.482,124,0.0,0.0,0.0,-0.99,0.03,0.00,1.00000,0.00003,0.00000,0.00000,0.046,0.0000
2026,2,28,12:31:53.567,-1.480,126,0.0,0.0,0.0,-0.99,0.04,0.00,1.00000,0.00003,0.00000,0.00000,0.045,0.0000
2026,2,28,12:31:53.569,-1.478,128,0.0,0.0,0.0,-0.99,0.03,0.00,1.00000,0.00003,0.00000,0.00000,0.045,0.0000
2026,2,28,12:31:53.571,-1.476,130,0.0,0.0,0.0,-0.99,0.03,0.00,1.00000,0.00003,0.00000,0.00000,0.046,0.0000
2026,2,28,12:31:53.573,-1.474,132,0.0,0.0,0.0,-0.99,0.03,0.00,1.00000,0.00003,0.00000,0.00000,0.045,0.0000
2026,2,28,12:31:53.575,-1.472,134,-0.1,0.0,0.0,-0.99,0.03,0.00,1.00000,0.00003,0.00000,0.00000,0.046,0.0000
2026,2,28,12:31:53.577,-1.470,136,0.0,0.0,0.0,-0.99,0.04,0.00,1.00000,0.00003,0.00000,0.00000,0.045,0.0000
2026,2,28,12:31:53.579,-1.468,138,0.0,0.0,0.0,-0.99,0.03,0.00,1.00000,0.00003,0.00000,0.00000,0.045,0.0000
2026,2,28,12:31:53.581,-1.466,140,0.0,0.0,0.0,-0.99,0.03,0.00,1.00000,0.00003,0.00000,0.00000,0.045,0.0000
2026,2,28,12:31:53.583,-1.464,142,0.0,0.0,0.0,-0.99,0.04,0.00,1.00000,0.00003,0.00000,0.00000,0.045,0.0000
2026,2,28,12:31:53.585,-1.462,144,0.0,0.0,0.0,-1.00,0.03,0.00,1.00000,0.00003,0.00000,0.00000,0.045,0.0000
2026,2,28,12:31:53.587,-1.460,146,0.0,0.0,0.0,-0.99,0.04,0.00,1.00000,0.00003,0.00000,0.00000,0.045,0.0000
2026,2,28,12:31:53.589,-1.458,148,0.0,0.0,0.0,-0.99,0.03,0.00,1.00000,0.00003,0.00000,0.00000,0.045,0.0000
2026,2,28,12:31:53.591,-1.456,150,0.0,0.0,0.0,-0.99,0.04,0.00,1.00000,0.00003,0.00000,0.00000,0.045,0.0000
2026,2,28,12:31:53.593,-1.454,152,0.1,0.0,0.0,-0.99,0.04,0.00,1.00000,0.00003,0.00000,0.00000,0.045,0.0000
2026,2,28,12:31:53.595,-1.452,154,0.0,0.0,0.0,-0.99,0.03,0.00,1.00000,0.00003,0.00000,0.00000,0.045,0.0000
2026,2,28,12:31:53.597,-1.450,156,0.0,0.0,0.0,-0.99,0.03,0.00,1.00000,0.00003,0.00000,0.00000,0.045,0.0000
2026,2,28,12:31:53.599,-1.448,158,-0.1,0.0,0.0,-0.99,0.04,0.00,1.00000,0.00003,0.00000,0.00000,0.045,0.0000
2026,2,28,12:31:53.601,-1.446,160,-0.1,0.0,0.0,-0.99,0.03,0.00,1.00000,0.00003,0.00000,0.00000,0.045,0.0000
2026,2,28,12:31:53.603,-1.444,162,0.0,0.0,0.0,-0.99,0.04,0.00,1.00000,0.00003,0.00000,0.00000,0.045,0.0000
2026,2,28,12:31:53.605,-1.442,164,0.0,0.0,0.0,-0.99,0.03,0.00,1.00000,0.00003,0.00000,0.00000,0.045,0.0000
2026,2,28,12:31:53.607,-1.440,166,0.0,0.0,0.0,-0.99,0.03,0.00,1.00000,0.00003,0.00000,0.00000,0.045,0.0000
2026,2,28,12:31:53.609,-1.438,168,0.0,0.0,0.0,-0.99,0.03,0.00,1.00000,0.00003,0.00000,0.00000,0.045,0.0000
2026,2,28,12:31:53.611,-1.436,170,0.0,0.0,0.0,-0.99,0.04,0.00,1.00000,0.00003,0.00000,0.00000,0.045,0.0000
2026,2,28,12:31:53.613,-1.434,172,0.0,0.0,0.0,-0.99,0.03,0.00,1.00000,0.00003,0.00000,0.00000,0.045,0.0000
2026,2,28,12:31:53.615,-1.432,174,0.0,0.0,0.0,-0.99,0.03,0.00,1.00000,0.00003,0.00000,0.00000,0.045,0.0000
2026,2,28,12:31:53.617,-1.430,176,0.0,0.0,0.0,-0.99,0.03,0.00,1.00000,0.00003,0.00000,0.00000,0.045,0.0000
2026,2,28,12:31:53.619,-1.428,178,0.0,0.0,0.0,-0.99,0.03,0.00,1.00000,0.00003,0.00000,0.00000,0.045,0.0000
2026,2,28,12:31:53.621,-1.426,180,0.0,0.0,0.0,-0.99,0.03,0.00,1.00000,0.00003,0.00000,0.00000,0.045,0.0000
2026,2,28,12:31:53.623,-1.424,182,0.0,0.0,0.0,-0.99,0.03,0.00,1.00000,0.00003,0.00000,0.00000,0.045,0.0000
2026,2,28,12:31:53.625,-1.422,184,-0.1,0.0,0.0,-0.99,0.03,0.00,1.00000,0.00003,0.00000,0.00000,0.044,0.0000
2026,2,28,12:31:53.627,-1.420,186,0.0,0.0,0.0,-0.99,0.03,0.00,1.00000,0.00003,0.00000,0.00000,0.045,0.0000
2026,2,28,12:31:53.629,-1.418,188,0.0,0.0,0.0,-0.99,0.03,0.00,1.00000,0.00003,0.00000,0.00000,0.045,0.0000
2026,2,28,12:31:53.631,-1.416,190,0.0,0.0,0.0,-0.99,0.03,0.00,1.00000,0.00003,0.00000,0.00000,0.045,0.0000
2026,2,28,12:31:53.633,-1.414,192,-0.1,0.0,0.0,-0.99,0.03,0.00,1.00000,0.00003,0.00000,0.00000,0.045,0.0000
2026,2,28,12:31:53.635,-1.412,194,0.0,0.0,0.0,-0.99,0.03,0.00,1.00000,0.00003,0.00000,0.00000,0.045,0.0000
2026,2,28,12:31:53.637,-1.410,196,0.0,0.0,0.0,-0.99,0.03,0.00,1.00000,0.00003,0.00000,0.00000,0.045,0.0000
2026,2,28,12:31:53.639,-1.408,198,0.0,0.0,0.0,-0.99,0.03,0.00,1.00000,0.00003,0.00000,0.00000,0.045,0.0000
2026,2,28,12:31:53.641,-1.406,200,-0.1,0.0,0.0,-0.99,0.04,0.00,1.00000,0.00003,0.00000,0.00000,0.045,0.0000
2026,2,28,12:31:53.643,-1.404,202,-0.1,0.0,0.0,-0.99,0.03,0.00,1.00000,0.00003,0.00000,0.00000,0.045,0.0000
2026,2,28,12:31:53.645,-1.402,204,0.0,0.0,0.0,-0.99,0.04,0.00,1.00000,0.00003,0.00000,0.00000,0.045,0.0000
2026,2,28,12:31:53.647,-1.400,206,0.0,0.0,0.0,-0.99,0.04,0.00,1.00000,0.00003,0.00000,0.00000,0.045,0.0000
2026,2,28,12:31:53.649,-1.398,208,0.0,0.0,0.0,-0.99,0.03,0.00,1.00000,0.00003,0.00000,0.00000,0.045,0.0000
2026,2,28,12:31:53.651,-1.396,210,0.0,0.0,0.0,-0.99,0.03,0.00,1.00000,0.00003,0.00000,0.00000,0.045,0.0000
2026,2,28,12:31:53.653,-1.394,212,0.0,0.0,0.0,-0.99,0.03,0.00,1.00000,0.00003,0.00000,0.00000,0.045,0.0000
2026,2,28,12:31:53.655,-1.392,214,0.0,0.0,0.0,-0.99,0.03,0.00,1.00000,0.00003,0.00000,0.00000,0.045,0.0000
2026,2,28,12:31:53.657,-1.390,216,0.0,0.0,0.0,-0.99,0.04,0.00,1.00000,0.00003,0.00000,0.00000,0.045,0.0000
2026,2,28,12:31:53.659,-1.388,218,0.0,0.0,0.0,-0.99,0.03,0.00,1.00000,0.00003,0.00000,0.00000,0.045,0.0000
2026,2,28,12:31:53.661,-1.386,220,0.0,0.0,0.0,-1.00,0.03,0.00,1.00000,0.00003,0.00000,0.00000,0.045,0.0000
2026,2,28,12:31:53.663,-1.384,222,0.0,0.0,-0.1,-0.99,0.03,0.00,1.00000,0.00003,0.00000,0.00000,0.045,0.0000
2026,2,28,12:31:53.665,-1.382,224,0.0,0.0,0.0,-0.99,0.03,0.00,1.00000,0.00003,0.00000,0.00000,0.045,0.0000
2026,2,28,12:31:53.667,-1.380,226,0.0,0.0,0.0,-0.99,0.03,0.00,1.00000,0.00007,0.00000,0.00000,0.045,0.0000
2026,2,28,12:31:53.669,-1.378,228,-0.1,0.0,0.0,-1.00,0.03,0.00,1.00000,0.00003,0.00000,0.00000,0.045,0.0000
2026,2,28,12:31:53.671,-1.376,230,0.0,0.0,0.0,-0.99,0.03,0.00,1.00000,0.00003,0.00000,0.00000,0.045,0.0000
2026,2,28,12:31:53.673,-1.374,232,0.0,0.1,0.0,-0.99,0.03,0.00,1.00000,0.00003,0.00000,0.00000,0.045,0.0000
2026,2,28,12:31:53.675,-1.372,234,0.0,0.0,0.0,-0.99,0.03,0.00,1.00000,0.00007,0.00000,0.00000,0.046,0.0000
2026,2,28,12:31:53.677,-1.370,236,0.0,0.0,0.0,-0.99,0.03,0.00,1.00000,0.00007,0.00000,0.00000,0.045,0.0000
2026,2,28,12:31:53.679,-1.368,238,-0.1,0.0,0.0,-0.99,0.03,0.00,1.00000,0.00003,0.00000,0.00000,0.045,0.0000
2026,2,28,12:31:53.681,-1.366,240,0.0,0.0,0.0,-0.99,0.03,0.00,1.00000,0.00003,0.00000,0.00000,0.045,0.0000
2026,2,28,12:31:53.683,-1.364,242,0.0,0.0,0.0,-0.99,0.03,0.00,1.00000,0.00007,0.00000,0.00000,0.045,0.0000
2026,2,28,12:31:53.685,-1.362,244,-0.1,0.0,0.0,-0.99,0.03,0.00,1.00000,0.00003,0.00000,0.00000,0.045,0.0000
2026,2,28,12:31:53.687,-1.360,246,-0.1,0.0,0.0,-0.99,0.03,0.00,1.00000,0.00003,0.00000,0.00000,0.045,0.0000
2026,2,28,12:31:53.689,-1.358,248,-0.1,0.0,0.0,-1.00,0.03,0.00,1.00000,0.00003,0.00000,0.00000,0.044,0.0000
2026,2,28,12:31:53.691,-1.356,0,-0.1,0.0,0.0,-0.99,0.03,0.00,1.00000,0.00003,0.00000,0.00000,0.045,0.0000
2026,2,28,12:31:53.693,-1.354,2,-0.1,0.0,0.0,-0.99,0.03,0.00,1.00000,0.00003,0.00000,0.00000,0.045,0.0000
2026,2,28,12:31:53.695,-1.352,4,-0.1,0.0,0.0,-0.99,0.03,0.00,1.00000,0.00003,0.00000,0.00000,0.045,0.0000
2026,2,28,12:31:53.697,-1.350,6,-0.1,0.0,0.0,-0.99,0.03,0.00,1.00000,0.00003,0.00000,0.00000,0.045,0.0000
2026,2,28,12:31:53.699,-1.348,8,0.0,0.0,0.0,-0.99,0.03,0.00,1.00000,0.00003,0.00000,0.00000,0.045,0.0000
2026,2,28,12:31:53.701,-1.346,10,0.0,0.0,0.0,-0.99,0.03,0.00,1.00000,0.00003,0.00000,0.00000,0.045,0.0000
2026,2,28,12:31:53.703,-1.344,12,-0.1,0.0,0.0,-0.99,0.03,0.00,1.00000,0.00003,0.00000,0.00000,0.045,0.0000
2026,2,28,12:31:53.705,-1.342,14,0.0,0.0,0.0,-0.99,0.03,0.00,1.00000,0.00003,0.00000,0.00000,0.045,0.0000
2026,2,28,12:31:53.707,-1.340,16,-0.1,0.0,0.0,-0.99,0.03,0.00,1.00000,0.00003,0.00000,0.00000,0.045,0.0000
2026,2,28,12:31:53.709,-1.338,18,0.0,0.0,0.0,-0.99,0.03,0.00,1.00000,0.00003,0.00000,0.00000,0.044,0.0000
2026,2,28,12:31:53.711,-1.336,20,0.0,0.0,0.0,-0.99,0.03,0.00,1.00000,0.00003,0.00000,0.00000,0.045,0.0000
2026,2,28,12:31:53.713,-1.334,22,0.0,0.0,0.0,-0.99,0.03,0.00,1.00000,0.00003,0.00000,0.00000,0.045,0.0000
2026,2,28,12:31:53.715,-1.332,24,-0.1,0.0,0.0,-0.99,0.03,0.00,1.00000,0.00003,0.00000,0.00000,0.045,0.0000
2026,2,28,12:31:53.717,-1.330,26,0.0,0.0,0.0,-0.99,0.03,0.00,1.00000,0.00003,0.00000,0.00000,0.045,0.0000
2026,2,28,12:31:53.719,-1.328,28,-0.1,0.0,0.0,-0.99,0.03,0.00,1.00000,0.00003,0.00000,0.00000,0.044,0.0000
2026,2,28,12:31:53.721,-1.326,30,0.0,0.0,0.0,-0.99,0.03,0.00,1.00000,0.00003,0.00000,0.00000,0.045,0.0000
2026,2,28,12:31:53.723,-1.324,32,-0.1,0.0,0.0,-0.99,0.03,0.00,1.00000,0.00003,0.00000,0.00000,0.045,0.0000
2026,2,28,12:31:53.725,-1.322,34,0.0,0.0,0.0,-0.99,0.03,0.00,1.00000,0.00003,0.00000,0.00000,0.045,0.0000
2026,2,28,12:31:53.727,-1.320,36,-0.1,0.0,0.0,-0.99,0.03,0.00,1.00000,0.00003,0.00000,0.00000,0.045,0.0000
2026,2,28,12:31:53.729,-1.318,38,0.0,0.0,0.0,-0.99,0.03,0.00,1.00000,0.00003,0.00000,0.00000,0.045,0.0000
2026,2,28,12:31:53.731,-1.316,40,0.0,0.0,0.0,-0.99,0.03,0.00,1.00000,0.00003,0.00000,0.00000,0.045,0.0000
2026,2,28,12:31:53.733,-1.314,42,0.0,0.0,0.0,-1.00,0.03,0.00,1.00000,0.00003,0.00000,0.00000,0.045,0.0000
2026,2,28,12:31:53.735,-1.312,44,-0.1,0.0,0.0,-0.99,0.03,0.00,1.00000,0.00003,0.00000,0.00000,0.045,0.0000
2026,2,28,12:31:53.737,-1.310,46,0.0,0.0,0.0,-1.00,0.03,0.00,1.00000,0.00003,0.00000,0.00000,0.045,0.0000
2026,2,28,12:31:53.739,-1.308,48,0.0,0.0,-0.1,-0.99,0.03,0.00,1.00000,0.00003,0.00000,0.00000,0.045,0.0000
2026,2,28,12:31:53.741,-1.306,50,0.0,0.0,-0.1,-0.99,0.03,0.00,1.00000,0.00003,0.00000,0.00000,0.045,0.0000
2026,2,28,12:31:53.743,-1.304,52,-0.1,0.0,0.0,-0.99,0.03,0.00,1.00000,0.00003,0.00000,0.00000,0.046,0.0000
2026,2,28,12:31:53.745,-1.302,54,0.0,0.0,0.0,-0.99,0.03,0.00,1.00000,0.00003,0.00000,0.00000,0.045,0.0000
2026,2,28,12:31:53.747,-1.300,56,0.0,0.0,0.0,-0.99,0.03,0.00,1.00000,0.00003,0.00000,0.00000,0.045,0.0000
2026,2,28,12:31:53.749,-1.298,58,0.0,0.0,0.0,-0.99,0.03,0.00,1.00000,0.00003,0.00000,0.00000,0.045,0.0000
2026,2,28,12:31:53.751,-1.296,60,0.0,0.0,0.0,-0.99,0.03,0.00,1.00000,0.00003,0.00000,0.00000,0.045,0.0000
2026,2,28,12:31:53.753,-1.294,62,0.0,0.0,0.0,-0.99,0.03,0.00,1.00000,0.00003,0.00000,0.00000,0.045,0.0000
2026,2,28,12:31:53.755,-1.292,64,0.0,0.0,0.0,-0.99,0.03,0.00,1.00000,0.00003,0.00000,0.00000,0.045,0.0000
2026,2,28,12:31:53.757,-1.290,66,0.0,0.0,0.0,-0.99,0.03,0.00,1.00000,0.00003,0.00000,0.00000,0.045,0.0000
2026,2,28,12:31:53.759,-1.288,68,-0.1,0.1,0.0,-0.99,0.03,0.00,1.00000,0.00003,0.00000,0.00000,0.045,0.0000
2026,2,28,12:31:53.761,-1.286,70,0.0,0.0,0.0,-0.99,0.03,0.00,1.00000,0.00003,0.00000,0.00000,0.045,0.0000
2026,2,28,12:31:53.763,-1.284,72,-0.1,0.0,0.0,-0.99,0.03,0.00,1.00000,0.00003,0.00000,0.00000,0.045,0.0000
2026,2,28,12:31:53.765,-1.282,74,-0.1,0.0,0.0,-0.99,0.03,0.00,1.00000,0.00003,0.00000,0.00000,0.045,0.0000
2026,2,28,12:31:53.767,-1.280,76,0.0,0.0,0.0,-0.99,0.03,0.00,1.00000,0.00003,0.00000,0.00000,0.045,0.0000
2026,2,28,12:31:53.769,-1.278,78,-0.1,0.0,0.0,-0.99,0.03,0.00,1.00000,0.00003,0.00000,0.00000,0.045,0.0000
2026,2,28,12:31:53.771,-1.276,80,0.0,0.0,0.0,-1.00,0.03,0.00,1.00000,0.00003,0.00000,0.00000,0.045,0.0000
2026,2,28,12:31:53.773,-1.274,82,0.0,0.0,0.0,-0.99,0.03,0.00,1.00000,0.00003,0.00000,0.00000,0.045,0.0000
2026,2,28,12:31:53.775,-1.272,84,0.0,0.0,0.0,-0.99,0.03,0.00,1.00000,0.00003,0.00000,0.00000,0.045,0.0000
2026,2,28,12:31:53.777,-1.270,86,0.0,0.0,0.0,-0.99,0.03,0.00,1.00000,0.00003,0.00000,0.00000,0.045,0.0000
2026,2,28,12:31:53.779,-1.268,88,0.1,0.0,0.0,-0.99,0.03,0.00,1.00000,0.00003,0.00000,0.00000,0.045,0.0000
2026,2,28,12:31:53.781,-1.266,90,0.0,0.0,0.0,-1.00,0.03,0.00,1.00000,0.00003,0.00000,0.00000,0.045,0.0000
2026,2,28,12:31:53.783,-1.264,92,-0.1,0.0,0.0,-0.99,0.03,0.00,1.00000,0.00003,0.00000,0.00000,0.045,0.0000
2026,2,28,12:31:53.785,-1.262,94,-0.1,0.0,0.0,-0.99,0.03,0.00,1.00000,0.00003,0.00000,0.00000,0.044,0.0000
2026,2,28,12:31:53.787,-1.260,96,-0.1,0.0,0.0,-0.99,0.03,0.00,1.00000,0.00003,0.00000,0.00000,0.045,0.0000
2026,2,28,12:31:53.789,-1.258,98,-0.1,0.0,0.0,-0.99,0.03,0.00,1.00000,0.00003,0.00000,0.00000,0.045,0.0000
2026,2,28,12:31:53.791,-1.256,100,0.0,0.0,0.0,-0.99,0.03,0.00,1.00000,0.00003,0.00000,0.00000,0.045,0.0000
2026,2,28,12:31:53.793,-1.254,102,0.0,0.0,0.0,-0.99,0.03,0.00,1.00000,0.00003,0.00000,0.00000,0.045,0.0000
2026,2,28,12:31:53.795,-1.252,104,0.0,0.0,0.0,-0.99,0.03,0.00,1.00000,0.00003,0.00000,0.00000,0.045,0.0000
2026,2,28,12:31:53.797,-1.250,106,0.0,0.0,0.0,-0.99,0.03,0.00,1.00000,0.00003,0.00000,0.00000,0.045,0.0000
2026,2,28,12:31:53.799,-1.248,108,0.0,0.0,0.0,-0.99,0.03,0.00,1.00000,0.00003,0.00000,0.00000,0.045,0.0000
2026,2,28,12:31:53.801,-1.246,110,0.0,0.0,0.0,-0.99,0.03,0.00,1.00000,0.00000,0.00000,0.00000,0.045,0.0000
2026,2,28,12:31:53.803,-1.244,112,-0.1,0.0,0.0,-0.99,0.03,0.00,1.00000,0.00000,0.00000,0.00000,0.045,0.0000
2026,2,28,12:31:53.805,-1.242,114,0.0,0.0,0.0,-0.99,0.03,0.00,1.00000,0.00000,0.00000,0.00000,0.045,0.0000
2026,2,28,12:31:53.807,-1.240,116,-0.1,0.0,0.0,-0.99,0.03,0.00,1.00000,0.00000,0.00000,0.00000,0.045,0.0000
2026,2,28,12:31:53.809,-1.238,118,-0.1,0.0,0.0,-0.99,0.03,0.00,1.00000,0.00000,0.00000,0.00000,0.045,0.0000
2026,2,28,12:31:53.811,-1.236,120,0.0,0.0,0.0,-0.99,0.03,0.00,1.00000,0.00000,0.00000,0.00000,0.045,0.0000
2026,2,28,12:31:53.813,-1.234,122,-0.1,0.0,0.0,-0.99,0.03,0.00,1.00000,0.00000,0.00000,0.00000,0.045,0.0000
2026,2,28,12:31:53.815,-1.232,124,0.0,0.0,0.0,-0.99,0.03,0.00,1.00000,0.00000,0.00000,0.00000,0.045,0.0000
2026,2,28,12:31:53.817,-1.230,126,-0.1,0.0,0.0,-0.99,0.03,0.00,1.00000,0.00000,0.00000,0.00000,0.045,0.0000
2026,2,28,12:31:53.819,-1.228,128,0.0,0.0,0.0,-0.99,0.03,0.00,1.00000,0.00000,0.00000,0.00000,0.044,0.0000
2026,2,28,12:31:53.821,-1.226,130,-0.1,0.0,0.0,-0.99,0.03,0.00,1.00000,0.00000,0.00000,0.00000,0.045,0.0000
2026,2,28,12:31:53.823,-1.224,132,0.0,0.0,0.0,-0.99,0.03,0.00,1.00000,0.00000,0.00000,0.00000,0.045,0.0000
2026,2,28,12:31:53.825,-1.222,134,-0.1,0.0,0.0,-0.99,0.03,0.00,1.00000,0.00000,0.00000,0.00000,0.045,0.0000
2026,2,28,12:31:53.827,-1.220,136,-0.1,0.0,0.0,-0.99,0.03,0.00,1.00000,0.00000,0.00000,0.00000,0.045,0.0000
2026,2,28,12:31:53.829,-1.218,138,-0.1,0.0,0.0,-1.00,0.03,0.00,1.00000,0.00000,0.00000,0.00000,0.045,0.0000
2026,2,28,12:31:53.831,-1.216,140,0.0,0.0,0.0,-0.99,0.03,0.00,1.00000,0.00000,0.00000,0.00000,0.045,0.0000
2026,2,28,12:31:53.833,-1.214,142,0.0,0.0,0.0,-1.00,0.03,0.00,1.00000,0.00000,0.00000,0.00000,0.045,0.0000
2026,2,28,12:31:53.835,-1.212,144,0.0,0.0,0.0,-0.99,0.03,0.00,1.00000,0.00000,0.00000,0.00000,0.045,0.0000
2026,2,28,12:31:53.837,-1.210,146,-0.1,0.0,0.0,-0.99,0.03,0.00,1.00000,0.00000,0.00000,0.00000,0.045,0.0000
2026,2,28,12:31:53.839,-1.208,148,0.0,0.0,0.0,-0.99,0.03,0.00,1.00000,0.00000,0.00000,0.00000,0.044,0.0000
2026,2,28,12:31:53.841,-1.206,150,0.0,0.0,0.0,-0.99,0.03,0.00,1.00000,0.00000,0.00000,0.00000,0.045,0.0000
2026,2,28,12:31:53.843,-1.204,152,0.0,0.0,0.0,-0.99,0.03,0.00,1.00000,0.00000,0.00000,0.00000,0.045,0.0000
2026,2,28,12:31:53.845,-1.202,154,-0.1,0.0,0.0,-0.99,0.03,0.00,1.00000,0.00000,0.00000,0.00000,0.045,0.0000
2026,2,28,12:31:53.847,-1.200,156,-0.1,0.0,0.0,-0.99,0.03,0.00,1.00000,0.00000,0.00000,0.00000,0.045,0.0000
2026,2,28,12:31:53.849,-1.198,158,0.0,0.0,0.0,-1.00,0.03,0.00,1.00000,0.00000,0.00000,0.00000,0.045,0.0000
2026,2,28,12:31:53.851,-1.196,160,0.0,0.0,0.0,-0.99,0.03,0.00,1.00000,0.00000,0.00000,0.00000,0.045,0.0000
2026,2,28,12:31:53.853,-1.194,162,-0.1,0.0,0.0,-0.99,0.03,0.00,1.00000,0.00000,0.00000,0.00000,0.045,0.0000
2026,2,28,12:31:53.855,-1.192,164,0.0,0.0,0.0,-0.99,0.03,0.00,1.00000,0.00000,0.00000,0.00000,0.045,0.0000
2026,2,28,12:31:53.857,-1.190,166,0.0,0.0,0.0,-0.99,0.03,0.00,1.00000,0.00000,0.00000,0.00000,0.045,0.0000
2026,2,28,12:31:53.859,-1.188,168,-0.1,0.0,0.0,-0.99,0.03,0.00,1.00000,0.00000,0.00000,0.00000,0.045,0.0000
2026,2,28,12:31:53.861,-1.186,170,0.0,0.0,0.0,-0.99,0.03,0.00,1.00000,0.00000,0.00000,0.00000,0.046,0.0000
2026,2,28,12:31:53.863,-1.184,172,0.0,0.0,0.0,-0.99,0.03,0.00,1.00000,0.00000,0.00000,0.00000,0.045,0.0000
2026,2,28,12:31:53.865,-1.182,174,0.0,0.0,0.0,-0.99,0.03,0.00,1.00000,0.00000,0.00000,0.00000,0.045,0.0000
2026,2,28,12:31:53.867,-1.180,176,-0.1,0.0,0.0,-0.99,0.03,0.00,1.00000,0.00000,0.00000,0.00000,0.045,0.0000
2026,2,28,12:31:53.869,-1.178,178,0.0,0.0,0.0,-0.99,0.03,0.00,1.00000,0.00000,0.00000,0.00000,0.045,0.0000
2026,2,28,12:31:53.871,-1.176,180,-0.1,0.0,0.0,-0.99,0.03,0.00,1.00000,0.00000,0.00000,0.00000,0.045,0.0000
2026,2,28,12:31:53.873,-1.174,182,0.0,0.0,0.0,-0.99,0.03,0.00,1.00000,0.00000,0.00000,0.00000,0.045,0.0000
2026,2,28,12:31:53.875,-1.172,184,0.0,0.0,0.0,-0.99,0.03,0.00,1.00000,0.00000,0.00000,0.00000,0.046,0.0000
2026,2,28,12:31:53.877,-1.170,186,0.0,0.0,0.0,-0.99,0.03,0.00,1.00000,0.00000,0.00000,0.00000,0.045,0.0000
2026,2,28,12:31:53.879,-1.168,188,0.0,0.0,0.0,-0.99,0.03,0.00,1.00000,0.00000,0.00000,0.00000,0.045,0.0000
2026,2,28,12:31:53.881,-1.166,190,0.0,0.0,0.0,-0.99,0.03,0.00,1.00000,0.00000,0.00000,0.00000,0.045,0.0000
2026,2,28,12:31:53.883,-1.164,192,0.0,0.0,0.0,-0.99,0.03,0.00,1.00000,0.00000,0.00000,0.00000,0.046,0.0000
2026,2,28,12:31:53.885,-1.162,194,0.0,0.0,0.0,-0.99,0.03,0.00,1.00000,0.00000,0.00000,0.00000,0.045,0.0000
2026,2,28,12:31:53.887,-1.160,196,0.0,0.0,0.0,-0.99,0.03,0.00,1.00000,0.00000,0.00000,0.00000,0.045,0.0000
2026,2,28,12:31:53.889,-1.158,198,0.0,0.0,0.0,-0.99,0.03,0.00,1.00000,0.00000,0.00000,0.00000,0.045,0.0000
2026,2,28,12:31:53.891,-1.156,200,0.0,0.0,0.0,-0.99,0.03,0.00,1.00000,0.00000,0.00000,0.00000,0.045,0.0000
2026,2,28,12:31:53.893,-1.154,202,-0.1,0.0,0.0,-0.99,0.03,0.00,1.00000,0.00000,0.00000,0.00000,0.045,0.0000
2026,2,28,12:31:53.895,-1.152,204,0.0,0.0,0.0,-0.99,0.03,0.00,1.00000,0.00000,0.00000,0.00000,0.045,0.0000
2026,2,28,12:31:53.897,-1.150,206,-0.1,0.0,0.0,-0.99,0.03,0.00,1.00000,0.00000,0.00000,0.00000,0.045,0.0000
2026,2,28,12:31:53.899,-1.148,208,0.0,0.0,0.0,-0.99,0.03,0.00,1.00000,0.00000,0.00000,0.00000,0.045,0.0000
2026,2,28,12:31:53.901,-1.146,210,0.0,0.0,0.0,-0.99,0.03,0.00,1.00000,0.00000,0.00000,0.00000,0.045,0.0000
2026,2,28,12:31:53.903,-1.144,212,0.0,0.0,0.0,-0.99,0.03,0.00,1.00000,0.00000,0.00000,0.00000,0.045,0.0000
2026,2,28,12:31:53.905,-1.142,214,0.0,0.0,0.0,-0.99,0.03,0.00,1.00000,0.00000,0.00000,0.00000,0.045,0.0000
2026,2,28,12:31:53.907,-1.140,216,0.0,0.0,0.0,-0.99,0.03,0.00,1.00000,0.00000,0.00000,0.00000,0.045,0.0000
2026,2,28,12:31:53.909,-1.138,218,0.0,0.0,0.0,-0.99,0.03,0.00,1.00000,0.00000,0.00000,0.00000,0.045,0.0000
2026,2,28,12:31:53.911,-1.136,220,0.0,0.0,0.0,-0.99,0.03,0.00,1.00000,0.00000,0.00000,0.00000,0.045,0.0000
2026,2,28,12:31:53.913,-1.134,222,-0.1,0.0,0.0,-0.99,0.03,0.00,1.00000,0.00000,0.00000,0.00000,0.045,0.0000
2026,2,28,12:31:53.915,-1.132,224,0.0,0.0,0.0,-0.99,0.03,0.00,1.00000,0.00000,0.00000,0.00000,0.045,0.0000
2026,2,28,12:31:53.917,-1.130,226,-0.1,0.1,0.0,-0.99,0.03,0.00,1.00000,0.00000,0.00000,0.00000,0.045,0.0000
2026,2,28,12:31:53.919,-1.128,228,0.0,0.0,0.0,-0.99,0.03,0.00,1.00000,0.00000,0.00000,0.00000,0.045,0.0000
2026,2,28,12:31:53.921,-1.126,230,0.0,0.1,0.0,-0.99,0.03,0.00,1.00000,0.00000,0.00000,0.00000,0.045,0.0000
2026,2,28,12:31:53.923,-1.124,232,0.0,0.0,0.0,-0.99,0.03,0.00,1.00000,0.00000,0.00000,0.00000,0.045,0.0000
2026,2,28,12:31:53.925,-1.122,234,0.0,0.0,0.0,-0.99,0.03,0.00,1.00000,0.00000,0.00000,0.00000,0.045,0.0000
2026,2,28,12:31:53.927,-1.120,236,0.0,0.0,0.0,-0.99,0.03,0.00,1.00000,0.00000,0.00000,0.00000,0.045,0.0000
2026,2,28,12:31:53.929,-1.118,238,0.0,0.0,0.0,-0.99,0.03,0.00,1.00000,0.00000,0.00000,0.00000,0.045,0.0000
2026,2,28,12:31:53.931,-1.116,240,0.0,0.0,0.0,-0.99,0.03,0.00,1.00000,0.00000,0.00000,0.00000,0.045,0.0000
2026,2,28,12:31:53.933,-1.114,242,0.1,0.0,0.0,-0.99,0.03,0.00,1.00000,0.00000,0.00000,0.00000,0.045,0.0000
2026,2,28,12:31:53.935,-1.112,244,0.0,0.0,0.0,-0.99,0.03,0.00,1.00000,0.00000,0.00000,0.00000,0.045,0.0000
2026,2,28,12:31:53.937,-1.110,246,0.0,0.0,0.0,-0.99,0.03,0.00,1.00000,0.00000,0.00000,0.00000,0.045,0.0000
2026,2,28,12:31:53.939,-1.108,248,0.0,0.0,0.0,-0.99,0.03,0.00,1.00000,0.00000,0.00000,0.00000,0.045,0.0000
2026,2,28,12:31:53.941,-1.106,0,0.0,0.0,0.0,-0.99,0.03,0.00,1.00000,0.00000,0.00000,0.00000,0.046,0.0000
2026,2,28,12:31:53.943,-1.104,2,0.0,0.0,0.0,-0.99,0.03,0.00,1.00000,0.00000,0.00000,0.00000,0.045,0.0000
2026,2,28,12:31:53.945,-1.102,4,-0.1,0.0,0.0,-0.99,0.03,0.00,1.00000,0.00000,0.00000,0.00000,0.045,0.0000
2026,2,28,12:31:53.947,-1.100,6,0.0,0.0,0.0,-0.99,0.03,0.00,1.00000,0.00000,0.00000,0.00000,0.045,0.0000
2026,2,28,12:31:53.949,-1.098,8,0.1,0.0,0.0,-0.99,0.03,0.00,1.00000,0.00000,0.00000,0.00000,0.045,0.0000
2026,2,28,12:31:53.951,-1.096,10,0.1,0.0,0.0,-0.99,0.03,0.00,1.00000,0.00000,0.00000,0.00000,0.045,0.0000
2026,2,28,12:31:53.953,-1.094,12,-0.1,0.0,0.0,-0.99,0.03,0.00,1.00000,0.00000,0.00000,0.00000,0.046,0.0000
2026,2,28,12:31:53.955,-1.092,14,0.0,0.0,0.0,-0.99,0.03,0.00,1.00000,0.00000,0.00000,0.00000,0.045,0.0000
2026,2,28,12:31:53.957,-1.090,16,0.0,0.0,0.0,-0.99,0.04,0.00,1.00000,0.00000,0.00000,0.00000,0.045,0.0000
2026,2,28,12:31:53.959,-1.088,18,0.0,0.0,0.0,-0.99,0.03,0.00,1.00000,0.00000,0.00000,0.00000,0.045,0.0000
2026,2,28,12:31:53.961,-1.086,20,0.0,0.0,0.0,-0.99,0.03,0.00,1.00000,0.00000,0.00000,0.00000,0.045,0.0000
2026,2,28,12:31:53.963,-1.084,22,0.0,0.0,0.0,-0.99,0.03,0.00,1.00000,0.00000,0.00000,0.00000,0.045,0.0000
2026,2,28,12:31:53.965,-1.082,24,0.0,0.0,0.0,-0.99,0.03,0.00,1.00000,0.00000,0.00000,0.00000,0.045,0.0000
2026,2,28,12:31:53.967,-1.080,26,0.1,0.0,0.0,-0.99,0.03,0.00,1.00000,0.00000,0.00000,0.00000,0.045,0.0000
2026,2,28,12:31:53.969,-1.078,28,0.0,0.0,0.0,-0.99,0.04,0.00,1.00000,0.00000,0.00000,0.00000,0.045,0.0000
2026,2,28,12:31:53.971,-1.076,30,0.0,0.0,0.0,-0.99,0.03,0.00,1.00000,0.00000,0.00000,0.00000,0.045,0.0000
2026,2,28,12:31:53.973,-1.074,32,-0.1,0.0,0.0,-0.99,0.03,0.00,1.00000,0.00000,0.00000,0.00000,0.045,0.0000
2026,2,28,12:31:53.975,-1.072,34,0.0,0.0,0.0,-0.99,0.03,0.00,1.00000,0.00000,0.00000,0.00000,0.045,0.0000
2026,2,28,12:31:53.977,-1.070,36,0.1,0.0,0.0,-0.99,0.03,0.00,1.00000,0.00000,0.00000,0.00000,0.045,0.0000
2026,2,28,12:31:53.979,-1.068,38,0.0,0.0,0.0,-0.99,0.03,0.00,1.00000,0.00000,0.00000,0.00000,0.045,0.0000
2026,2,28,12:31:53.981,-1.066,40,-0.1,0.0,0.0,-0.99,0.03,0.00,1.00000,0.00000,0.00000,0.00000,0.045,0.0000
2026,2,28,12:31:53.983,-1.064,42,-0.1,0.0,0.0,-0.99,0.03,0.00,1.00000,0.00000,0.00000,0.00000,0.045,0.0000
2026,2,28,12:31:53.985,-1.062,44,0.0,0.0,0.0,-1.00,0.03,0.00,1.00000,0.00000,0.00000,0.00000,0.045,0.0000
2026,2,28,12:31:53.987,-1.060,46,0.0,0.0,0.0,-0.99,0.03,0.00,1.00000,0.00000,0.00000,0.00000,0.045,0.0000
2026,2,28,12:31:53.989,-1.058,48,0.0,0.0,0.0,-0.99,0.03,0.00,1.00000,0.00000,0.00000,0.00000,0.045,0.0000
2026,2,28,12:31:53.991,-1.056,50,-0.1,0.0,0.0,-0.99,0.03,0.00,1.00000,0.00000,0.00000,0.00000,0.045,0.0000
2026,2,28,12:31:53.993,-1.054,52,0.0,0.0,0.0,-1.00,0.03,0.00,1.00000,0.00000,0.00000,0.00000,0.045,0.0000
2026,2,28,12:31:53.995,-1.052,54,0.0,0.0,0.0,-0.99,0.03,0.00,1.00000,0.00000,0.00000,0.00000,0.046,0.0000
2026,2,28,12:31:53.997,-1.050,56,0.0,0.0,0.0,-0.99,0.03,0.00,1.00000,0.00000,0.00000,0.00000,0.045,0.0000
2026,2,28,12:31:53.999,-1.048,58,0.0,0.0,0.0,-0.99,0.03,0.00,1.00000,0.00000,0.00000,0.00000,0.045,0.0000
2026,2,28,12:31:54.001,-1.046,60,0.0,0.0,0.0,-0.99,0.03,0.00,1.00000,0.00000,0.00000,0.00000,0.045,0.0000
2026,2,28,12:31:54.003,-1.044,62,0.0,0.0,0.0,-0.99,0.03,0.00,1.00000,0.00000,0.00000,0.00000,0.044,0.0000
2026,2,28,12:31:54.005,-1.042,64,0.0,0.0,0.0,-0.99,0.03,0.00,1.00000,0.00000,0.00000,0.00000,0.045,0.0000
2026,2,28,12:31:54.007,-1.040,66,0.0,0.0,0.0,-0.99,0.03,0.00,1.00000,0.00000,0.00000,0.00000,0.045,0.0000
2026,2,28,12:31:54.009,-1.038,68,0.0,0.0,0.0,-0.99,0.03,0.00,1.00000,0.00000,0.00000,0.00000,0.046,0.0000
2026,2,28,12:31:54.011,-1.036,70,0.0,0.0,0.0,-0.99,0.03,0.00,1.00000,0.00000,0.00000,0.00000,0.045,0.0000
2026,2,28,12:31:54.013,-1.034,72,0.0,0.0,0.0,-0.99,0.03,0.00,1.00000,0.00000,0.00000,0.00000,0.045,0.0000
2026,2,28,12:31:54.015,-1.032,74,0.0,0.0,0.0,-0.99,0.03,0.00,1.00000,0.00000,0.00000,0.00000,0.045,0.0000
2026,2,28,12:31:54.017,-1.030,76,0.0,0.0,0.0,-0.99,0.03,0.00,1.00000,0.00000,0.00000,0.00000,0.045,0.0000
2026,2,28,12:31:54.019,-1.028,78,-0.1,0.0,0.0,-0.99,0.03,0.00,1.00000,0.00000,0.00000,0.00000,0.045,0.0000
2026,2,28,12:31:54.021,-1.026,80,0.0,0.0,0.0,-0.99,0.03,0.00,1.00000,0.00000,0.00000,0.00000,0.045,0.0000
2026,2,28,12:31:54.023,-1.024,82,-0.1,0.0,0.0,-0.99,0.03,0.00,1.00000,0.00000,0.00000,0.00000,0.045,0.0000
2026,2,28,12:31:54.025,-1.022,84,-0.1,0.0,0.0,-0.99,0.03,0.00,1.00000,0.00000,0.00000,0.00000,0.045,0.0000
2026,2,28,12:31:54.027,-1.020,86,-0.1,0.0,0.0,-0.99,0.03,0.00,1.00000,0.00000,0.00000,0.00000,0.045,0.0000
2026,2,28,12:31:54.029,-1.018,88,0.0,0.0,0.0,-0.99,0.03,0.00,1.00000,0.00000,0.00000,0.00000,0.045,0.0000
2026,2,28,12:31:54.031,-1.016,90,0.0,0.0,0.0,-0.99,0.03,0.00,1.00000,0.00000,0.00000,0.00000,0.046,0.0000
2026,2,28,12:31:54.033,-1.014,92,-0.1,0.0,0.0,-0.99,0.03,0.00,1.00000,0.00000,0.00000,0.00000,0.046,0.0000
2026,2,28,12:31:54.035,-1.012,94,0.0,0.0,0.0,-0.99,0.03,0.00,1.00000,0.00000,0.00000,0.00000,0.045,0.0000
2026,2,28,12:31:54.037,-1.010,96,0.0,0.0,0.1,-0.99,0.03,0.00,1.00000,0.00000,0.00000,0.00000,0.045,0.0000
2026,2,28,12:31:54.039,-1.008,98,0.1,0.0,0.0,-0.99,0.03,0.00,1.00000,0.00000,0.00000,0.00000,0.045,0.0000
2026,2,28,12:31:54.041,-1.006,100,0.0,0.0,0.1,-0.99,0.03,0.00,1.00000,0.00000,0.00000,0.00000,0.045,0.0000
2026,2,28,12:31:54.043,-1.004,102,-0.1,0.0,0.1,-0.99,0.03,0.00,1.00000,0.00000,0.00000,0.00000,0.045,0.0000
2026,2,28,12:31:54.045,-1.002,104,0.0,0.0,0.1,-0.99,0.03,0.00,1.00000,0.00000,0.00000,0.00000,0.045,0.0000
2026,2,28,12:31:54.047,-1.000,106,0.0,0.0,0.1,-1.00,0.03,0.00,1.00000,0.00000,0.00000,0.00000,0.045,0.0000
2026,2,28,12:31:54.049,-0.998,108,0.0,0.0,0.1,-1.00,0.03,0.00,1.00000,0.00000,0.00000,0.00000,0.045,0.0000
2026,2,28,12:31:54.051,-0.996,110,0.0,0.0,0.0,-0.99,0.03,0.00,1.00000,0.00000,0.00000,0.00000,0.044,0.0000
2026,2,28,12:31:54.053,-0.994,112,0.0,0.0,0.1,-1.00,0.03,0.00,1.00000,0.00000,0.00000,0.00000,0.045,0.0000
2026,2,28,12:31:54.055,-0.992,114,0.0,0.0,0.0,-1.00,0.03,0.00,1.00000,0.00000,0.00000,0.00000,0.045,0.0000
2026,2,28,12:31:54.057,-0.990,116,-0.1,0.0,0.1,-0.99,0.04,0.00,1.00000,0.00000,0.00000,0.00000,0.045,0.0000
2026,2,28,12:31:54.059,-0.988,118,0.0,0.0,0.0,-1.01,0.03,0.00,1.00000,0.00000,0.00000,0.00000,0.045,0.0000
2026,2,28,12:31:54.061,-0.986,120,0.0,0.0,0.1,-0.97,0.03,0.00,1.00000,0.00000,0.00000,0.00000,0.045,0.0000
2026,2,28,12:31:54.063,-0.984,122,-0.1,0.0,0.1,-0.99,0.04,0.00,1.00000,0.00000,0.00000,0.00000,0.045,0.0000
2026,2,28,12:31:54.065,-0.982,124,-0.1,0.0,0.0,-1.00,0.03,0.00,1.00000,0.00000,0.00000,0.00000,0.046,0.0000
2026,2,28,12:31:54.067,-0.980,126,-0.1,0.0,0.0,-0.97,0.04,0.00,1.00000,0.00000,0.00000,0.00000,0.045,0.0000
2026,2,28,12:31:54.069,-0.978,128,-0.1,0.0,0.0,-0.99,0.03,0.00,1.00000,0.00000,0.00000,0.00000,0.045,0.0000
2026,2,28,12:31:54.071,-0.976,130,-0.1,0.0,0.0,-1.01,0.03,0.00,1.00000,0.00000,0.00000,0.00000,0.045,0.0000
2026,2,28,12:31:54.073,-0.974,132,-0.1,0.0,0.0,-0.98,0.03,0.00,1.00000,0.00000,0.00000,0.00000,0.045,0.0000
2026,2,28,12:31:54.075,-0.972,134,-0.1,0.0,0.1,-1.01,0.04,0.00,1.00000,0.00000,0.00000,0.00000,0.045,0.0000
2026,2,28,12:31:54.077,-0.970,136,-0.1,0.0,0.0,-0.99,0.04,0.00,1.00000,0.00000,0.00000,0.00000,0.045,0.0000
2026,2,28,12:31:54.079,-0.968,138,0.0,0.0,0.0,-1.00,0.04,0.00,1.00000,0.00000,0.00000,0.00000,0.045,0.0000
2026,2,28,12:31:54.081,-0.966,140,0.0,0.0,0.0,-1.00,0.03,0.00,1.00000,0.00000,0.00000,0.00000,0.045,0.0000
2026,2,28,12:31:54.083,-0.964,142,0.0,0.1,0.0,-1.00,0.03,0.00,1.00000,0.00000,0.00000,0.00000,0.045,0.0000
2026,2,28,12:31:54.085,-0.962,144,-0.1,0.0,0.1,-0.99,0.03,0.00,1.00000,0.00000,0.00000,0.00000,0.045,0.0000
2026,2,28,12:31:54.087,-0.960,146,0.0,0.0,0.1,-1.00,0.03,0.00,1.00000,0.00000,0.00000,0.00000,0.045,0.0000
2026,2,28,12:31:54.089,-0.958,148,0.0,0.0,0.1,-0.99,0.04,-0.01,1.00000,0.00000,0.00000,0.00000,0.045,0.0000
2026,2,28,12:31:54.091,-0.956,150,0.1,0.0,0.0,-0.99,0.03,0.01,1.00000,0.00000,0.00000,0.00000,0.045,0.0000
2026,2,28,12:31:54.093,-0.954,152,0.0,0.0,0.0,-0.99,0.03,0.00,1.00000,0.00000,0.00000,0.00000,0.045,0.0000
2026,2,28,12:31:54.095,-0.952,154,0.0,0.0,0.0,-0.99,0.04,0.00,1.00000,0.00000,0.00000,0.00000,0.045,0.0000
2026,2,28,12:31:54.097,-0.950,156,0.0,0.0,0.0,-0.99,0.03,0.00,1.00000,0.00000,0.00000,0.00000,0.045,0.0000
2026,2,28,12:31:54.099,-0.948,158,-0.1,0.0,0.1,-0.99,0.03,-0.01,1.00000,0.00000,0.00000,0.00000,0.045,0.0000
2026,2,28,12:31:54.101,-0.946,160,0.1,0.0,0.0,-0.98,0.03,0.00,1.00000,0.00000,0.00000,0.00000,0.045,0.0000
2026,2,28,12:31:54.103,-0.944,162,-0.1,0.0,0.0,-0.99,0.04,0.00,1.00000,0.00000,0.00000,0.00000,0.045,0.0000
2026,2,28,12:31:54.105,-0.942,164,0.1,0.1,0.1,-0.99,0.03,0.00,1.00000,0.00000,0.00000,0.00000,0.045,0.0000
2026,2,28,12:31:54.107,-0.940,166,0.0,0.0,0.1,-0.99,0.03,-0.01,1.00000,0.00000,0.00000,0.00000,0.045,0.0000
2026,2,28,12:31:54.109,-0.938,168,0.0,0.0,0.1,-0.99,0.03,0.00,1.00000,0.00000,0.00000,0.00000,0.044,0.0000
2026,2,28,12:31:54.111,-0.936,170,-0.1,0.0,0.0,-1.00,0.03,-0.01,1.00000,0.00000,0.00000,0.00000,0.045,0.0000
2026,2,28,12:31:54.113,-0.934,172,-0.1,0.0,0.0,-1.00,0.03,0.00,1.00000,0.00000,0.00000,0.00000,0.045,0.0000
2026,2,28,12:31:54.115,-0.932,174,-0.1,0.0,0.0,-0.99,0.03,0.00,1.00000,0.00000,0.00000,0.00000,0.045,0.0000
2026,2,28,12:31:54.117,-0.930,176,-0.1,0.0,0.0,-0.99,0.03,0.00,1.00000,0.00000,0.00000,0.00000,0.045,0.0000
2026,2,28,12:31:54.119,-0.928,178,-0.1,0.0,0.0,-0.99,0.03,0.00,1.00000,0.00000,0.00000,0.00000,0.045,0.0000
2026,2,28,12:31:54.121,-0.926,180,-0.1,0.0,0.0,-1.00,0.03,0.00,1.00000,0.00000,0.00000,0.00000,0.045,0.0000
2026,2,28,12:31:54.123,-0.924,182,-0.1,0.0,0.0,-0.99,0.03,0.00,1.00000,0.00000,0.00000,0.00000,0.045,0.0000
2026,2,28,12:31:54.125,-0.922,184,-0.1,0.0,0.0,-1.00,0.03,0.00,1.00000,0.00000,0.00000,0.00000,0.046,0.0000
2026,2,28,12:31:54.127,-0.920,186,-0.1,0.0,0.1,-0.99,0.03,0.00,1.00000,0.00000,0.00000,0.00000,0.045,0.0000
2026,2,28,12:31:54.129,-0.918,188,-0.1,0.0,0.1,-1.00,0.03,0.00,1.00000,0.00000,0.00000,0.00000,0.045,0.0000
2026,2,28,12:31:54.131,-0.916,190,-0.1,0.0,0.0,-0.99,0.03,0.00,1.00000,0.00000,0.00000,0.00000,0.045,0.0000
2026,2,28,12:31:54.133,-0.914,192,-0.1,0.0,0.0,-0.99,0.03,0.00,1.00000,0.00000,0.00000,0.00000,0.045,0.0000
2026,2,28,12:31:54.135,-0.912,194,-0.1,0.0,0.1,-0.99,0.03,0.00,1.00000,0.00000,0.00000,0.00000,0.046,0.0000
2026,2,28,12:31:54.137,-0.910,196,0.0,0.0,0.0,-1.00,0.03,0.00,1.00000,0.00000,0.00000,0.00000,0.045,0.0000
2026,2,28,12:31:54.139,-0.908,198,0.0,0.0,0.0,-0.99,0.03,0.00,1.00000,0.00000,0.00000,0.00000,0.045,0.0000
2026,2,28,12:31:54.141,-0.906,200,0.0,0.0,0.0,-0.99,0.04,0.00,1.00000,0.00000,0.00000,0.00000,0.045,0.0000
2026,2,28,12:31:54.143,-0.904,202,0.0,0.0,0.0,-0.99,0.03,0.00,1.00000,0.00000,0.00000,0.00000,0.045,0.0000
2026,2,28,12:31:54.145,-0.902,204,0.0,0.0,0.1,-1.00,0.04,0.00,1.00000,0.00000,0.00000,0.00000,0.045,0.0000
2026,2,28,12:31:54.147,-0.900,206,0.1,0.0,0.1,-0.99,0.03,0.00,1.00000,0.00000,0.00000,0.00000,0.045,0.0000
2026,2,28,12:31:54.149,-0.898,208,0.1,0.0,0.1,-0.99,0.04,0.00,1.00000,0.00000,0.00000,0.00000,0.045,0.0000
2026,2,28,12:31:54.151,-0.896,210,0.0,0.0,0.1,-0.99,0.03,0.00,1.00000,0.00000,0.00000,0.00000,0.045,0.0000
2026,2,28,12:31:54.153,-0.894,212,0.1,0.0,0.1,-0.99,0.03,0.00,1.00000,0.00000,0.00000,0.00000,0.045,0.0000
2026,2,28,12:31:54.155,-0.892,214,0.0,0.0,0.0,-1.00,0.03,0.00,1.00000,0.00000,0.00000,0.00000,0.045,0.0000
2026,2,28,12:31:54.157,-0.890,216,0.0,0.0,0.1,-0.99,0.03,0.00,1.00000,0.00000,0.00000,0.00000,0.045,0.0000
2026,2,28,12:31:54.159,-0.888,218,0.0,0.0,0.0,-1.00,0.03,0.00,1.00000,0.00000,0.00000,0.00000,0.045,0.0000
2026,2,28,12:31:54.161,-0.886,220,0.0,0.0,0.0,-0.98,0.03,0.00,1.00000,0.00000,0.00000,0.00000,0.045,0.0000
2026,2,28,12:31:54.163,-0.884,222,0.0,0.0,0.1,-0.99,0.03,0.00,1.00000,0.00000,0.00000,0.00000,0.046,0.0000
2026,2,28,12:31:54.165,-0.882,224,0.1,0.0,0.0,-0.99,0.03,0.00,1.00000,0.00000,0.00000,0.00000,0.045,0.0000
2026,2,28,12:31:54.167,-0.880,226,0.0,0.0,0.0,-1.00,0.03,0.00,1.00000,0.00000,0.00000,0.00000,0.045,0.0000
2026,2,28,12:31:54.169,-0.878,228,0.0,0.0,0.0,-0.99,0.03,0.00,1.00000,0.00000,0.00000,0.00000,0.045,0.0000
2026,2,28,12:31:54.171,-0.876,230,0.0,0.0,0.0,-1.00,0.03,0.00,1.00000,0.00000,0.00000,0.00000,0.045,0.0000
2026,2,28,12:31:54.173,-0.874,232,0.0,0.0,0.0,-0.99,0.03,0.00,1.00000,0.00000,0.00000,0.00000,0.046,0.0000
2026,2,28,12:31:54.175,-0.872,234,-0.1,0.0,0.0,-0.99,0.03,0.00,1.00000,0.00000,0.00000,0.00000,0.045,0.0000
2026,2,28,12:31:54.177,-0.870,236,0.1,0.0,0.1,-1.00,0.03,0.00,1.00000,0.00000,0.00000,0.00000,0.045,0.0000
2026,2,28,12:31:54.179,-0.868,238,-0.1,-0.2,0.1,-0.99,0.03,0.00,1.00000,0.00000,0.00000,0.00000,0.045,0.0000
2026,2,28,12:31:54.181,-0.866,240,-0.1,0.0,0.0,-0.99,0.03,0.00,1.00000,0.00000,0.00000,0.00000,0.045,0.0000
2026,2,28,12:31:54.183,-0.864,242,-0.1,0.0,0.0,-0.99,0.03,0.00,1.00000,0.00000,0.00000,0.00000,0.044,0.0000
2026,2,28,12:31:54.185,-0.862,244,-0.1,0.0,0.1,-1.00,0.03,0.00,1.00000,0.00000,0.00000,0.00000,0.046,0.0000
2026,2,28,12:31:54.187,-0.860,246,-0.1,0.0,0.0,-0.99,0.03,0.00,1.00000,0.00000,0.00000,0.00000,0.044,0.0000
2026,2,28,12:31:54.189,-0.858,248,-0.1,0.0,0.1,-0.99,0.03,0.00,1.00000,0.00000,0.00000,0.00000,0.045,0.0000
2026,2,28,12:31:54.191,-0.856,0,-0.1,0.0,0.0,-0.99,0.03,0.00,1.00000,0.00000,0.00000,0.00000,0.045,0.0000
2026,2,28,12:31:54.193,-0.854,2,0.0,0.0,0.0,-1.00,0.03,0.00,1.00000,0.00000,0.00000,0.00000,0.045,0.0000
2026,2,28,12:31:54.195,-0.852,4,0.0,0.0,0.0,-0.99,0.03,0.00,1.00000,0.00000,0.00000,0.00000,0.045,0.0000
2026,2,28,12:31:54.197,-0.850,6,-0.1,0.0,0.0,-0.99,0.03,0.00,1.00000,0.00000,0.00000,0.00000,0.045,0.0000
2026,2,28,12:31:54.199,-0.848,8,0.0,0.0,0.0,-0.99,0.03,0.00,1.00000,0.00000,0.00000,0.00000,0.045,0.0000
2026,2,28,12:31:54.201,-0.846,10,0.1,0.0,0.1,-1.00,0.03,0.00,1.00000,0.00000,0.00000,0.00000,0.045,0.0000
2026,2,28,12:31:54.203,-0.844,12,0.1,0.0,0.0,-0.99,0.03,0.00,1.00000,0.00000,0.00000,0.00000,0.045,0.0000
2026,2,28,12:31:54.205,-0.842,14,0.1,0.0,0.1,-0.99,0.03,0.00,1.00000,0.00000,0.00000,0.00000,0.045,0.0000
2026,2,28,12:31:54.207,-0.840,16,0.1,0.0,0.0,-0.99,0.03,0.00,1.00000,0.00000,0.00000,0.00000,0.045,0.0000
2026,2,28,12:31:54.209,-0.838,18,0.1,0.0,-0.1,-0.99,0.03,0.00,1.00000,0.00000,0.00000,0.00000,0.045,0.0000
2026,2,28,12:31:54.211,-0.836,20,0.0,0.0,0.1,-0.99,0.03,0.00,1.00000,0.00000,0.00000,0.00000,0.045,0.0000
2026,2,28,12:31:54.213,-0.834,22,0.0,0.0,0.1,-0.99,0.03,0.00,1.00000,0.00000,0.00000,0.00000,0.045,0.0000
2026,2,28,12:31:54.215,-0.832,24,0.1,0.0,0.0,-1.00,0.03,0.00,1.00000,0.00000,0.00000,0.00000,0.045,0.0000
2026,2,28,12:31:54.217,-0.830,26,0.0,0.0,0.0,-0.99,0.03,0.00,1.00000,0.00000,0.00000,0.00000,0.045,0.0000
2026,2,28,12:31:54.219,-0.828,28,0.0,0.0,0.0,-0.99,0.04,0.00,1.00000,0.00000,0.00000,0.00000,0.045,0.0000
2026,2,28,12:31:54.221,-0.826,30,0.0,0.0,0.0,-1.00,0.03,0.00,1.00000,0.00000,0.00000,0.00000,0.045,0.0000
2026,2,28,12:31:54.223,-0.824,32,0.0,0.0,0.0,-0.99,0.03,0.00,1.00000,0.00000,0.00000,0.00000,0.045,0.0000
2026,2,28,12:31:54.225,-0.822,34,0.0,0.0,0.0,-1.00,0.03,0.00,1.00000,0.00000,0.00000,0.00000,0.045,0.0000
2026,2,28,12:31:54.227,-0.820,36,-0.1,0.0,0.1,-0.99,0.03,0.00,1.00000,0.00000,0.00000,0.00000,0.045,0.0000
2026,2,28,12:31:54.229,-0.818,38,-0.1,0.0,0.0,-0.99,0.03,0.00,1.00000,0.00000,0.00000,0.00000,0.045,0.0000
2026,2,28,12:31:54.231,-0.816,40,-0.1,0.0,0.0,-1.00,0.03,0.00,1.00000,0.00000,0.00000,0.00000,0.046,0.0000
2026,2,28,12:31:54.233,-0.814,42,0.0,0.0,0.0,-0.99,0.03,0.00,1.00000,0.00000,0.00000,0.00000,0.045,0.0000
2026,2,28,12:31:54.235,-0.812,44,-0.1,0.0,0.1,-0.99,0.03,0.00,1.00000,0.00000,0.00000,0.00000,0.045,0.0000
2026,2,28,12:31:54.237,-0.810,46,0.0,0.0,0.1,-0.99,0.03,0.00,1.00000,0.00000,0.00000,0.00000,0.045,0.0000
2026,2,28,12:31:54.239,-0.808,48,-0.1,0.0,0.0,-1.00,0.03,0.00,1.00000,0.00000,0.00000,0.00000,0.045,0.0000
2026,2,28,12:31:54.241,-0.806,50,0.0,0.0,0.0,-0.99,0.03,0.00,1.00000,0.00000,0.00000,0.00000,0.045,0.0000
2026,2,28,12:31:54.243,-0.804,52,0.0,0.0,0.0,-0.99,0.04,0.00,1.00000,0.00000,0.00000,0.00000,0.045,0.0000
2026,2,28,12:31:54.245,-0.802,54,0.0,0.0,0.0,-0.99,0.04,0.00,1.00000,0.00000,0.00000,0.00000,0.045,0.0000
2026,2,28,12:31:54.247,-0.800,56,0.0,0.0,0.0,-0.99,0.03,0.00,1.00000,0.00000,0.00000,0.00000,0.045,0.0000
2026,2,28,12:31:54.249,-0.798,58,0.0,0.0,0.0,-0.99,0.03,0.00,1.00000,0.00000,0.00000,0.00000,0.045,0.0000
2026,2,28,12:31:54.251,-0.796,60,0.1,0.0,0.0,-0.99,0.03,0.00,1.00000,0.00000,0.00000,0.00000,0.045,0.0000
2026,2,28,12:31:54.253,-0.794,62,0.0,0.0,0.0,-0.99,0.03,0.00,1.00000,0.00000,0.00000,0.00000,0.045,0.0000
2026,2,28,12:31:54.255,-0.792,64,0.0,0.0,0.0,-0.99,0.03,0.00,1.00000,0.00000,0.00000,0.00000,0.046,0.0000
2026,2,28,12:31:54.257,-0.790,66,0.0,0.0,0.0,-0.99,0.03,0.00,1.00000,0.00000,0.00000,0.00000,0.045,0.0000
2026,2,28,12:31:54.259,-0.788,68,-0.1,0.0,0.0,-0.99,0.03,0.00,1.00000,0.00000,0.00000,0.00000,0.045,0.0000
2026,2,28,12:31:54.261,-0.786,70,0.1,0.0,-0.1,-0.99,0.03,0.00,1.00000,0.00000,0.00000,0.00000,0.045,0.0000
2026,2,28,12:31:54.263,-0.784,72,0.1,0.0,0.0,-0.99,0.03,0.00,1.00000,0.00000,0.00000,0.00000,0.045,0.0000
2026,2,28,12:31:54.265,-0.782,74,0.0,0.0,0.0,-0.99,0.03,0.00,1.00000,0.00000,0.00000,0.00000,0.045,0.0000
2026,2,28,12:31:54.267,-0.780,76,0.0,0.0,0.1,-0.99,0.03,0.00,1.00000,0.00000,0.00000,0.00000,0.045,0.0000
2026,2,28,12:31:54.269,-0.778,78,0.0,0.0,0.1,-0.99,0.03,0.00,1.00000,0.00000,0.00000,0.00000,0.045,0.0000
2026,2,28,12:31:54.271,-0.776,80,0.0,0.0,0.1,-0.99,0.03,0.00,1.00000,0.00000,0.00000,0.00000,0.045,0.0000
2026,2,28,12:31:54.273,-0.774,82,0.0,0.0,0.1,-0.99,0.03,0.00,1.00000,0.00000,0.00000,0.00000,0.045,0.0000
2026,2,28,12:31:54.275,-0.772,84,0.0,0.0,0.0,-0.99,0.03,0.00,1.00000,0.00000,0.00000,0.00000,0.045,0.0000
2026,2,28,12:31:54.277,-0.770,86,-0.1,0.0,0.0,-0.99,0.03,0.00,1.00000,0.00000,0.00000,0.00000,0.045,0.0000
2026,2,28,12:31:54.279,-0.768,88,-0.1,0.0,0.0,-0.99,0.03,0.00,1.00000,0.00000,0.00000,0.00000,0.045,0.0000
2026,2,28,12:31:54.281,-0.766,90,-0.1,0.1,0.0,-0.99,0.03,0.00,1.00000,0.00000,0.00000,0.00000,0.045,0.0000
2026,2,28,12:31:54.283,-0.764,92,-0.1,0.0,0.0,-0.99,0.03,0.00,1.00000,0.00000,0.00000,0.00000,0.045,0.0000
2026,2,28,12:31:54.285,-0.762,94,-0.1,0.0,0.0,-0.99,0.03,0.00,1.00000,0.00000,0.00000,0.00000,0.045,0.0000
2026,2,28,12:31:54.287,-0.760,96,-0.1,0.0,0.0,-0.99,0.03,0.00,1.00000,0.00000,0.00000,0.00000,0.045,0.0000
2026,2,28,12:31:54.289,-0.758,98,0.0,0.0,0.0,-0.99,0.03,0.00,1.00000,0.00000,0.00000,0.00000,0.045,0.0000
2026,2,28,12:31:54.291,-0.756,100,-0.1,0.0,0.0,-0.99,0.03,0.00,1.00000,0.00000,0.00000,0.00000,0.045,0.0000
2026,2,28,12:31:54.293,-0.754,102,-0.1,0.0,0.0,-0.99,0.03,0.00,1.00000,0.00000,0.00000,0.00000,0.045,0.0000
2026,2,28,12:31:54.295,-0.752,104,-0.1,0.0,0.0,-0.99,0.03,0.00,1.00000,0.00000,0.00000,0.00000,0.045,0.0000
2026,2,28,12:31:54.297,-0.750,106,0.0,0.0,0.0,-0.99,0.03,0.00,1.00000,0.00000,0.00000,0.00000,0.045,0.0000
2026,2,28,12:31:54.299,-0.748,108,-0.1,0.0,0.0,-0.99,0.03,0.00,1.00000,0.00000,0.00000,0.00000,0.045,0.0000
2026,2,28,12:31:54.301,-0.746,110,-0.1,0.0,0.0,-0.99,0.03,0.00,1.00000,0.00000,0.00000,0.00000,0.045,0.0000
2026,2,28,12:31:54.303,-0.744,112,-0.1,0.0,0.0,-0.99,0.03,0.00,1.00000,0.00000,0.00000,0.00000,0.045,0.0000
2026,2,28,12:31:54.305,-0.742,114,0.0,0.0,0.0,-0.99,0.03,0.00,1.00000,0.00000,0.00000,0.00000,0.045,0.0000
2026,2,28,12:31:54.307,-0.740,116,0.0,0.0,0.0,-0.99,0.03,0.00,1.00000,0.00000,0.00000,0.00000,0.045,0.0000
2026,2,28,12:31:54.309,-0.738,118,0.1,0.0,0.1,-0.99,0.03,0.00,1.00000,0.00000,0.00000,0.00000,0.044,0.0000
2026,2,28,12:31:54.311,-0.736,120,0.0,0.0,0.0,-0.99,0.03,0.00,1.00000,0.00000,0.00000,0.00000,0.045,0.0000
2026,2,28,12:31:54.313,-0.734,122,0.0,0.0,0.0,-1.00,0.03,0.00,1.00000,0.00000,0.00000,0.00000,0.045,0.0000
2026,2,28,12:31:54.315,-0.732,124,0.0,0.0,0.1,-0.99,0.03,0.00,1.00000,0.00000,0.00000,0.00000,0.045,0.0000
2026,2,28,12:31:54.317,-0.730,126,0.0,0.0,0.0,-0.99,0.03,0.00,1.00000,0.00000,0.00000,0.00000,0.045,0.0000
2026,2,28,12:31:54.319,-0.728,128,0.0,0.0,-0.1,-0.99,0.03,0.00,1.00000,0.00000,0.00000,0.00000,0.046,0.0000
2026,2,28,12:31:54.321,-0.726,130,0.0,0.0,0.0,-0.99,0.03,0.00,1.00000,0.00000,0.00000,0.00000,0.045,0.0000
2026,2,28,12:31:54.323,-0.724,132,0.0,0.0,0.0,-1.00,0.03,0.00,1.00000,0.00000,0.00000,0.00000,0.045,0.0000
2026,2,28,12:31:54.325,-0.722,134,0.1,0.0,0.1,-0.99,0.03,0.00,1.00000,0.00000,0.00000,0.00000,0.045,0.0000
2026,2,28,12:31:54.327,-0.720,136,0.0,0.0,0.0,-0.99,0.03,0.00,1.00000,0.00000,0.00000,0.00000,0.045,0.0000
2026,2,28,12:31:54.329,-0.718,138,0.0,0.0,0.0,-1.00,0.03,0.00,1.00000,0.00000,0.00000,0.00000,0.045,0.0000
2026,2,28,12:31:54.331,-0.716,140,0.1,0.0,0.1,-0.99,0.03,0.00,1.00000,0.00000,0.00000,0.00000,0.046,0.0000
2026,2,28,12:31:54.333,-0.714,142,0.0,0.0,0.1,-0.99,0.03,0.00,1.00000,0.00000,0.00000,0.00000,0.044,0.0000
2026,2,28,12:31:54.335,-0.712,144,0.0,0.0,0.0,-0.99,0.03,0.00,1.00000,0.00000,0.00000,0.00000,0.045,0.0000
2026,2,28,12:31:54.337,-0.710,146,0.0,0.0,0.0,-0.99,0.03,0.00,1.00000,0.00000,0.00000,0.00000,0.045,0.0000
2026,2,28,12:31:54.339,-0.708,148,-0.1,0.0,0.1,-1.00,0.03,0.00,1.00000,0.00000,0.00000,0.00000,0.045,0.0000
2026,2,28,12:31:54.341,-0.706,150,-0.1,0.0,0.0,-0.99,0.03,0.00,1.00000,0.00000,0.00000,0.00000,0.045,0.0000
2026,2,28,12:31:54.343,-0.704,152,0.0,0.0,0.0,-0.99,0.03,0.00,1.00000,0.00000,0.00000,0.00000,0.045,0.0000
2026,2,28,12:31:54.345,-0.702,154,0.0,0.1,0.1,-0.99,0.03,0.00,1.00000,0.00000,0.00000,0.00000,0.045,0.0000
2026,2,28,12:31:54.347,-0.700,156,0.0,0.0,0.1,-1.00,0.03,0.00,1.00000,0.00000,0.00000,0.00000,0.045,0.0000
2026,2,28,12:31:54.349,-0.698,158,0.0,0.0,0.0,-0.99,0.03,0.00,1.00000,0.00000,0.00000,0.00000,0.045,0.0000
2026,2,28,12:31:54.351,-0.696,160,0.0,0.0,0.0,-1.00,0.03,0.00,1.00000,0.00000,0.00000,0.00000,0.045,0.0000
2026,2,28,12:31:54.353,-0.694,162,-0.1,0.0,0.0,-0.99,0.03,0.00,1.00000,0.00000,0.00000,0.00000,0.045,0.0000
2026,2,28,12:31:54.355,-0.692,164,0.0,0.0,0.1,-0.99,0.03,0.00,1.00000,0.00000,0.00000,0.00000,0.046,0.0000
2026,2,28,12:31:54.357,-0.690,166,0.0,0.0,0.0,-0.99,0.03,0.00,1.00000,0.00000,0.00000,0.00000,0.045,0.0000
2026,2,28,12:31:54.359,-0.688,168,0.0,0.0,0.0,-0.99,0.03,0.00,1.00000,0.00000,0.00000,0.00000,0.045,0.0000
2026,2,28,12:31:54.361,-0.686,170,-0.1,0.0,0.0,-0.99,0.03,0.00,1.00000,0.00000,0.00000,0.00000,0.045,0.0000
2026,2,28,12:31:54.363,-0.684,172,0.0,0.0,0.0,-0.99,0.03,0.00,1.00000,0.00000,0.00000,0.00000,0.045,0.0000
2026,2,28,12:31:54.365,-0.682,174,0.0,0.0,0.0,-1.00,0.03,0.00,1.00000,0.00000,0.00000,0.00000,0.045,0.0000
2026,2,28,12:31:54.367,-0.680,176,0.1,0.0,0.0,-0.99,0.03,0.00,1.00000,0.00000,0.00000,0.00000,0.045,0.0000
2026,2,28,12:31:54.369,-0.678,178,0.1,0.0,0.1,-0.99,0.03,0.00,1.00000,0.00000,0.00000,0.00000,0.045,0.0000
2026,2,28,12:31:54.371,-0.676,180,0.1,0.0,0.0,-0.99,0.03,0.00,1.00000,0.00000,0.00000,0.00000,0.045,0.0000
2026,2,28,12:31:54.373,-0.674,182,0.1,0.0,0.0,-0.99,0.03,0.00,1.00000,0.00000,0.00000,0.00000,0.045,0.0000
2026,2,28,12:31:54.375,-0.672,184,0.0,0.0,0.0,-0.99,0.03,0.00,1.00000,0.00000,0.00000,0.00000,0.045,0.0000
2026,2,28,12:31:54.377,-0.670,186,0.1,0.0,0.0,-0.99,0.03,0.00,1.00000,0.00000,0.00000,0.00000,0.045,0.0000
2026,2,28,12:31:54.379,-0.668,188,0.0,0.0,0.1,-0.99,0.03,0.00,1.00000,0.00000,0.00000,0.00000,0.045,0.0000
2026,2,28,12:31:54.381,-0.666,190,0.0,0.0,0.0,-0.99,0.03,0.00,1.00000,0.00000,0.00000,0.00000,0.045,0.0000
2026,2,28,12:31:54.383,-0.664,192,0.0,0.0,0.0,-1.00,0.03,0.00,1.00000,0.00000,0.00000,0.00000,0.045,0.0000
2026,2,28,12:31:54.385,-0.662,194,0.0,0.0,0.0,-0.99,0.03,0.00,1.00000,0.00000,0.00000,0.00000,0.045,0.0000
2026,2,28,12:31:54.387,-0.660,196,-0.1,0.0,0.0,-0.99,0.03,0.00,1.00000,0.00000,0.00000,0.00000,0.045,0.0000
2026,2,28,12:31:54.389,-0.658,198,0.0,0.0,0.0,-1.00,0.03,0.00,1.00000,0.00000,0.00000,0.00000,0.045,0.0000
2026,2,28,12:31:54.391,-0.656,200,0.0,0.1,0.0,-0.99,0.03,0.00,1.00000,0.00000,0.00000,0.00000,0.045,0.0000
2026,2,28,12:31:54.393,-0.654,202,0.0,0.0,0.0,-1.00,0.03,0.00,1.00000,0.00000,0.00000,0.00000,0.045,0.0000
2026,2,28,12:31:54.395,-0.652,204,-0.1,0.0,0.1,-1.00,0.03,0.00,1.00000,0.00000,0.00000,0.00000,0.045,0.0000
2026,2,28,12:31:54.397,-0.650,206,0.0,0.0,0.0,-0.99,0.03,0.00,1.00000,0.00000,0.00000,0.00000,0.045,0.0000
2026,2,28,12:31:54.399,-0.648,208,-0.1,0.0,0.0,-0.99,0.03,0.00,1.00000,0.00000,0.00000,0.00000,0.046,0.0000
2026,2,28,12:31:54.401,-0.646,210,-0.1,0.0,0.1,-0.99,0.03,0.00,1.00000,0.00000,0.00000,0.00000,0.045,0.0000
2026,2,28,12:31:54.403,-0.644,212,-0.1,0.0,0.1,-1.00,0.03,0.00,1.00000,0.00000,0.00000,0.00000,0.045,0.0000
2026,2,28,12:31:54.405,-0.642,214,-0.1,0.0,0.0,-0.99,0.03,0.00,1.00000,0.00000,0.00000,0.00000,0.045,0.0000
2026,2,28,12:31:54.407,-0.640,216,-0.1,0.0,0.0,-0.99,0.03,0.00,1.00000,0.00000,0.00000,0.00000,0.045,0.0000
2026,2,28,12:31:54.409,-0.638,218,0.0,0.0,0.0,-0.99,0.03,0.00,1.00000,0.00000,0.00000,0.00000,0.045,0.0000
2026,2,28,12:31:54.411,-0.636,220,-0.1,0.0,0.0,-0.99,0.03,0.00,1.00000,0.00000,0.00000,0.00000,0.045,0.0000
2026,2,28,12:31:54.413,-0.634,222,-0.1,0.0,0.1,-1.00,0.03,0.00,1.00000,0.00000,0.00000,0.00000,0.045,0.0000
2026,2,28,12:31:54.415,-0.632,224,0.0,0.0,0.0,-0.99,0.03,0.00,1.00000,0.00000,0.00000,0.00000,0.045,0.0000
2026,2,28,12:31:54.417,-0.630,226,0.0,0.0,0.0,-0.99,0.03,0.00,1.00000,0.00000,0.00000,0.00000,0.045,0.0000
2026,2,28,12:31:54.419,-0.628,228,-0.1,0.0,0.0,-0.99,0.03,0.00,1.00000,0.00000,0.00000,0.00000,0.045,0.0000
2026,2,28,12:31:54.421,-0.626,230,0.0,0.0,0.0,-1.00,0.03,0.00,1.00000,0.00000,0.00000,0.00000,0.045,0.0000
2026,2,28,12:31:54.423,-0.624,232,0.0,0.0,0.0,-0.99,0.03,0.00,1.00000,0.00000,0.00000,0.00000,0.045,0.0000
2026,2,28,12:31:54.425,-0.622,234,0.0,0.0,0.0,-1.00,0.03,0.00,1.00000,0.00000,0.00000,0.00000,0.045,0.0000
2026,2,28,12:31:54.427,-0.620,236,0.1,0.0,0.0,-0.99,0.03,0.00,1.00000,0.00000,0.00000,0.00000,0.045,0.0000
2026,2,28,12:31:54.429,-0.618,238,0.0,0.0,0.0,-0.99,0.03,0.00,1.00000,0.00000,0.00000,0.00000,0.045,0.0000
2026,2,28,12:31:54.431,-0.616,240,0.0,0.0,0.0,-0.99,0.03,0.00,1.00000,0.00000,0.00000,0.00000,0.045,0.0000
2026,2,28,12:31:54.433,-0.614,242,0.0,0.0,0.0,-0.99,0.03,0.00,1.00000,0.00000,0.00000,0.00000,0.045,0.0000
2026,2,28,12:31:54.435,-0.612,244,0.0,0.0,0.0,-0.99,0.03,0.00,1.00000,0.00000,0.00000,0.00000,0.045,0.0000
2026,2,28,12:31:54.437,-0.610,246,0.0,0.0,0.0,-0.99,0.03,0.00,1.00000,0.00000,0.00000,0.00000,0.045,0.0000
2026,2,28,12:31:54.439,-0.608,248,-0.1,0.0,0.0,-1.00,0.03,0.00,1.00000,0.00000,0.00000,0.00000,0.045,0.0000
2026,2,28,12:31:54.441,-0.606,0,0.0,0.0,0.0,-0.99,0.03,0.00,1.00000,0.00000,0.00000,0.00000,0.045,0.0000
2026,2,28,12:31:54.443,-0.604,2,0.0,0.0,0.1,-0.99,0.03,0.00,1.00000,0.00000,0.00000,0.00000,0.045,0.0000
2026,2,28,12:31:54.445,-0.602,4,-0.1,0.0,0.0,-0.99,0.03,0.00,1.00000,0.00000,0.00000,0.00000,0.045,0.0000
2026,2,28,12:31:54.447,-0.600,6,-0.1,0.0,0.1,-0.99,0.03,0.00,1.00000,0.00000,0.00000,0.00000,0.045,0.0000
2026,2,28,12:31:54.449,-0.598,8,0.0,0.0,0.1,-1.00,0.03,0.00,1.00000,0.00000,0.00000,0.00000,0.046,0.0000
2026,2,28,12:31:54.451,-0.596,10,-0.1,0.0,0.1,-0.99,0.03,0.00,1.00000,0.00000,0.00000,0.00000,0.045,0.0000
2026,2,28,12:31:54.453,-0.594,12,-0.1,0.0,0.1,-0.99,0.03,0.00,1.00000,0.00000,0.00000,0.00000,0.045,0.0000
2026,2,28,12:31:54.455,-0.592,14,0.0,0.0,0.1,-0.99,0.03,0.00,1.00000,0.00000,0.00000,0.00000,0.044,0.0000
2026,2,28,12:31:54.457,-0.590,16,-0.1,0.0,-0.1,-1.00,0.03,0.00,1.00000,0.00000,0.00000,0.00000,0.045,0.0000
2026,2,28,12:31:54.459,-0.588,18,-0.1,0.0,0.0,-0.99,0.03,0.00,1.00000,0.00000,0.00000,0.00000,0.045,0.0000
2026,2,28,12:31:54.461,-0.586,20,0.0,0.0,0.1,-1.00,0.03,0.00,1.00000,0.00000,0.00000,0.00000,0.045,0.0000
2026,2,28,12:31:54.463,-0.584,22,-0.1,0.0,0.0,-0.99,0.03,0.00,1.00000,0.00000,0.00000,0.00000,0.046,0.0000
2026,2,28,12:31:54.465,-0.582,24,0.0,0.0,0.1,-0.99,0.03,0.00,1.00000,0.00000,0.00000,0.00000,0.045,0.0000
2026,2,28,12:31:54.467,-0.580,26,0.0,0.0,0.1,-0.99,0.03,0.00,1.00000,0.00000,0.00000,0.00000,0.045,0.0000
2026,2,28,12:31:54.469,-0.578,28,0.0,0.0,0.1,-0.99,0.03,0.00,1.00000,0.00000,0.00000,0.00000,0.045,0.0000
2026,2,28,12:31:54.471,-0.576,30,-0.1,0.0,0.0,-0.99,0.04,0.00,1.00000,0.00000,0.00000,0.00000,0.045,0.0000
2026,2,28,12:31:54.473,-0.574,32,-0.1,0.0,0.1,-1.00,0.03,0.00,1.00000,0.00000,0.00000,0.00000,0.045,0.0000
2026,2,28,12:31:54.475,-0.572,34,0.0,0.0,0.0,-0.99,0.03,0.00,1.00000,0.00000,0.00000,0.00000,0.046,0.0000
2026,2,28,12:31:54.477,-0.570,36,0.0,-0.2,0.0,-0.99,0.04,0.00,1.00000,0.00000,0.00000,0.00000,0.045,0.0000
2026,2,28,12:31:54.479,-0.568,38,-0.1,0.0,0.1,-0.99,0.03,0.00,1.00000,0.00000,0.00000,0.00000,0.045,0.0000
2026,2,28,12:31:54.481,-0.566,40,0.0,0.0,0.1,-0.99,0.03,0.00,1.00000,0.00000,0.00000,0.00000,0.045,0.0000
2026,2,28,12:31:54.483,-0.564,42,-0.1,0.0,0.0,-0.99,0.03,0.00,1.00000,0.00000,0.00000,0.00000,0.045,0.0000
2026,2,28,12:31:54.485,-0.562,44,0.0,0.0,0.1,-0.99,0.03,0.00,1.00000,0.00000,0.00000,0.00000,0.045,0.0000
2026,2,28,12:31:54.487,-0.560,46,0.0,0.0,0.0,-0.99,0.03,0.00,1.00000,0.00000,0.00000,0.00000,0.045,0.0000
2026,2,28,12:31:54.489,-0.558,48,0.0,0.0,0.0,-0.99,0.03,0.00,1.00000,0.00000,0.00000,0.00000,0.045,0.0000
2026,2,28,12:31:54.491,-0.556,50,0.0,0.0,0.1,-0.99,0.03,0.00,1.00000,0.00000,0.00000,0.00000,0.045,0.0000
2026,2,28,12:31:54.493,-0.554,52,-0.1,0.0,0.0,-0.99,0.03,0.00,1.00000,0.00000,0.00000,0.00000,0.045,0.0000
2026,2,28,12:31:54.495,-0.552,54,-0.1,0.0,0.1,-1.00,0.03,0.00,1.00000,0.00000,0.00000,0.00000,0.045,0.0000
2026,2,28,12:31:54.497,-0.550,56,0.0,0.0,-0.1,-0.99,0.03,0.00,1.00000,0.00000,0.00000,0.00000,0.045,0.0000
2026,2,28,12:31:54.499,-0.548,58,-0.1,0.0,0.0,-0.99,0.03,0.00,1.00000,0.00000,0.00000,0.00000,0.045,0.0000
2026,2,28,12:31:54.501,-0.546,60,0.0,0.0,0.0,-1.00,0.03,0.00,1.00000,0.00000,0.00000,0.00000,0.045,0.0000
2026,2,28,12:31:54.503,-0.544,62,0.0,0.0,0.0,-0.99,0.03,0.00,1.00000,0.00000,0.00000,0.00000,0.045,0.0000
2026,2,28,12:31:54.505,-0.542,64,-0.1,0.0,0.0,-0.99,0.03,0.00,1.00000,0.00000,0.00000,0.00000,0.045,0.0000
2026,2,28,12:31:54.507,-0.540,66,0.0,0.0,0.0,-0.99,0.03,0.00,1.00000,0.00000,0.00000,0.00000,0.045,0.0000
2026,2,28,12:31:54.509,-0.538,68,0.0,0.0,0.0,-1.00,0.03,0.00,1.00000,0.00000,0.00000,0.00000,0.045,0.0000
2026,2,28,12:31:54.511,-0.536,70,-0.1,0.0,0.1,-0.99,0.03,0.00,1.00000,0.00000,0.00000,0.00000,0.045,0.0000
2026,2,28,12:31:54.513,-0.534,72,0.0,0.0,0.0,-0.99,0.03,0.00,1.00000,0.00000,0.00000,0.00000,0.045,0.0000
2026,2,28,12:31:54.515,-0.532,74,-0.1,0.0,0.0,-0.99,0.03,0.00,1.00000,0.00000,0.00000,0.00000,0.045,0.0000
2026,2,28,12:31:54.517,-0.530,76,0.0,0.0,0.0,-0.99,0.03,0.00,1.00000,0.00000,0.00000,0.00000,0.046,0.0000
2026,2,28,12:31:54.519,-0.528,78,0.0,0.0,0.1,-0.99,0.03,0.00,1.00000,0.00000,0.00000,0.00000,0.045,0.0000
2026,2,28,12:31:54.521,-0.526,80,-0.1,0.0,0.1,-1.00,0.03,0.00,1.00000,0.00000,0.00000,0.00000,0.044,0.0000
2026,2,28,12:31:54.523,-0.524,82,-0.1,0.0,0.1,-0.99,0.03,0.00,1.00000,0.00000,0.00000,0.00000,0.045,0.0000
2026,2,28,12:31:54.525,-0.522,84,-0.1,0.0,0.1,-0.99,0.03,0.00,1.00000,0.00000,0.00000,0.00000,0.044,0.0000
2026,2,28,12:31:54.527,-0.520,86,-0.1,0.0,0.1,-1.00,0.03,0.00,1.00000,0.00000,0.00000,0.00000,0.045,0.0000
2026,2,28,12:31:54.529,-0.518,88,0.0,0.0,0.0,-0.99,0.03,0.00,1.00000,0.00000,0.00000,0.00000,0.045,0.0000
2026,2,28,12:31:54.531,-0.516,90,-0.1,0.0,0.0,-1.00,0.03,0.00,1.00000,0.00000,0.00000,0.00000,0.045,0.0000
2026,2,28,12:31:54.533,-0.514,92,-0.1,0.0,0.1,-0.99,0.03,0.00,1.00000,0.00000,0.00000,0.00000,0.045,0.0000
2026,2,28,12:31:54.535,-0.512,94,-0.1,0.0,0.0,-0.99,0.03,0.00,1.00000,0.00000,0.00000,0.00000,0.045,0.0000
2026,2,28,12:31:54.537,-0.510,96,-0.1,0.0,0.1,-0.99,0.03,0.00,1.00000,0.00000,0.00000,0.00000,0.044,0.0000
2026,2,28,12:31:54.539,-0.508,98,-0.1,0.0,0.1,-0.99,0.04,0.00,1.00000,0.00000,0.00000,0.00000,0.045,0.0000
2026,2,28,12:31:54.541,-0.506,100,0.1,0.0,0.0,-0.99,0.03,0.00,1.00000,0.00000,0.00000,0.00000,0.045,0.0000
2026,2,28,12:31:54.543,-0.504,102,0.0,0.0,0.0,-0.99,0.03,0.00,1.00000,0.00000,0.00000,0.00000,0.045,0.0000
2026,2,28,12:31:54.545,-0.502,104,0.0,0.0,0.0,-0.99,0.03,0.00,1.00000,0.00000,0.00000,0.00000,0.045,0.0000
2026,2,28,12:31:54.547,-0.500,106,0.0,0.0,0.0,-0.99,0.03,0.00,1.00000,0.00000,0.00000,0.00000,0.045,0.0000
2026,2,28,12:31:54.549,-0.498,108,0.0,0.0,0.0,-1.00,0.03,0.00,1.00000,0.00000,0.00000,0.00000,0.045,0.0000
2026,2,28,12:31:54.551,-0.496,110,0.0,0.0,0.0,-0.99,0.03,0.00,1.00000,0.00000,0.00000,0.00000,0.045,0.0000
2026,2,28,12:31:54.553,-0.494,112,0.0,0.0,0.1,-0.99,0.04,0.00,1.00000,0.00000,0.00000,0.00000,0.045,0.0000
2026,2,28,12:31:54.555,-0.492,114,0.0,0.0,0.0,-0.99,0.03,0.00,1.00000,0.00000,0.00000,0.00000,0.045,0.0000
2026,2,28,12:31:54.557,-0.490,116,0.0,0.0,0.0,-0.99,0.04,0.00,1.00000,0.00000,0.00000,0.00000,0.045,0.0000
2026,2,28,12:31:54.559,-0.488,118,-0.1,0.0,0.0,-0.99,0.04,0.00,1.00000,0.00000,0.00000,0.00000,0.045,0.0000
2026,2,28,12:31:54.561,-0.486,120,-0.1,0.0,0.0,-0.99,0.03,0.00,1.00000,0.00000,0.00000,0.00000,0.045,0.0000
2026,2,28,12:31:54.563,-0.484,122,-0.1,0.0,0.0,-0.99,0.03,0.00,1.00000,0.00000,0.00000,0.00000,0.046,0.0000
2026,2,28,12:31:54.565,-0.482,124,0.0,0.0,0.0,-1.00,0.03,0.00,1.00000,0.00000,0.00000,0.00000,0.045,0.0000
2026,2,28,12:31:54.567,-0.480,126,0.0,0.0,0.0,-0.99,0.03,0.00,1.00000,0.00000,0.00000,0.00000,0.045,0.0000
2026,2,28,12:31:54.569,-0.478,128,0.0,0.0,0.0,-0.99,0.04,0.00,1.00000,0.00000,0.00000,0.00000,0.045,0.0000
2026,2,28,12:31:54.571,-0.476,130,0.0,0.0,0.0,-0.99,0.03,0.00,1.00000,0.00000,0.00000,0.00000,0.045,0.0000
2026,2,28,12:31:54.573,-0.474,132,0.0,0.0,0.1,-0.99,0.03,0.00,1.00000,0.00000,0.00000,0.00000,0.045,0.0000
2026,2,28,12:31:54.575,-0.472,134,0.0,0.0,0.0,-0.99,0.04,0.00,1.00000,0.00000,0.00000,0.00000,0.045,0.0000
2026,2,28,12:31:54.577,-0.470,136,-0.1,0.0,0.1,-1.00,0.03,0.00,1.00000,0.00000,0.00000,0.00000,0.045,0.0000
2026,2,28,12:31:54.579,-0.468,138,0.1,0.0,0.0,-0.99,0.04,0.00,1.00000,0.00000,0.00000,0.00000,0.045,0.0000
2026,2,28,12:31:54.581,-0.466,140,0.3,0.0,0.0,-0.99,0.03,0.00,1.00000,0.00000,0.00000,0.00000,0.045,0.0000
2026,2,28,12:31:54.583,-0.464,142,0.0,0.0,0.0,-1.00,0.03,0.00,1.00000,0.00000,0.00000,0.00000,0.045,0.0000
2026,2,28,12:31:54.585,-0.462,144,0.0,0.0,0.0,-0.99,0.03,0.00,1.00000,0.00000,0.00000,0.00000,0.045,0.0000
2026,2,28,12:31:54.587,-0.460,146,0.0,0.0,0.0,-0.99,0.03,0.00,1.00000,0.00000,0.00000,0.00000,0.045,0.0000
2026,2,28,12:31:54.589,-0.458,148,0.1,0.0,0.0,-0.99,0.03,0.00,1.00000,0.00000,0.00000,0.00000,0.045,0.0000
2026,2,28,12:31:54.591,-0.456,150,0.0,0.0,0.0,-0.99,0.03,0.00,1.00000,0.00000,0.00000,0.00000,0.045,0.0000
2026,2,28,12:31:54.593,-0.454,152,0.3,0.0,0.0,-0.99,0.03,0.00,1.00000,0.00000,0.00000,0.00000,0.045,0.0000
2026,2,28,12:31:54.595,-0.452,154,0.1,0.0,0.0,-0.99,0.03,0.00,1.00000,0.00000,0.00000,0.00000,0.045,0.0000
2026,2,28,12:31:54.597,-0.450,156,0.1,0.0,0.0,-0.99,0.03,0.00,1.00000,0.00000,0.00000,0.00000,0.045,0.0000
2026,2,28,12:31:54.599,-0.448,158,0.0,0.0,0.0,-0.99,0.03,0.00,1.00000,0.00000,0.00000,0.00000,0.045,0.0000
2026,2,28,12:31:54.601,-0.446,160,0.1,0.0,0.0,-0.99,0.03,0.00,1.00000,0.00000,0.00000,0.00000,0.045,0.0000
2026,2,28,12:31:54.603,-0.444,162,0.1,0.0,0.0,-0.99,0.03,0.00,1.00000,0.00000,0.00000,0.00000,0.045,0.0000
2026,2,28,12:31:54.605,-0.442,164,0.0,0.0,0.0,-1.00,0.03,0.00,1.00000,0.00000,0.00000,0.00000,0.045,0.0000
2026,2,28,12:31:54.607,-0.440,166,0.1,0.0,0.0,-0.99,0.03,0.00,1.00000,0.00000,0.00000,0.00000,0.045,0.0000
2026,2,28,12:31:54.609,-0.438,168,0.1,0.0,0.0,-0.99,0.03,0.00,1.00000,0.00000,0.00000,0.00000,0.044,0.0000
2026,2,28,12:31:54.611,-0.436,170,0.1,0.0,0.0,-0.99,0.03,0.00,1.00000,0.00003,0.00000,0.00000,0.045,0.0000
2026,2,28,12:31:54.613,-0.434,172,0.1,0.0,0.0,-1.00,0.03,0.00,1.00000,0.00003,0.00000,0.00000,0.045,0.0000
2026,2,28,12:31:54.615,-0.432,174,0.0,0.0,0.0,-0.99,0.03,0.00,1.00000,0.00003,0.00000,0.00000,0.045,0.0000
2026,2,28,12:31:54.617,-0.430,176,0.1,0.0,0.0,-0.99,0.03,0.00,1.00000,0.00003,0.00000,0.00000,0.045,0.0000
2026,2,28,12:31:54.619,-0.428,178,0.1,0.0,0.1,-0.99,0.03,0.00,1.00000,0.00003,0.00000,0.00000,0.045,0.0000
2026,2,28,12:31:54.621,-0.426,180,0.1,0.0,0.0,-0.99,0.03,0.00,1.00000,0.00003,0.00000,0.00000,0.045,0.0000
2026,2,28,12:31:54.623,-0.424,182,0.0,0.0,0.0,-0.99,0.03,0.00,1.00000,0.00003,0.00000,0.00000,0.045,0.0000
2026,2,28,12:31:54.625,-0.422,184,0.1,0.0,0.0,-0.99,0.03,0.00,1.00000,0.00003,0.00000,0.00000,0.045,0.0000
2026,2,28,12:31:54.627,-0.420,186,0.1,0.0,0.0,-0.99,0.03,0.00,1.00000,0.00003,0.00000,0.00000,0.045,0.0000
2026,2,28,12:31:54.629,-0.418,188,0.1,0.0,0.0,-0.99,0.03,0.00,1.00000,0.00003,0.00000,0.00000,0.045,0.0000
2026,2,28,12:31:54.631,-0.416,190,0.1,0.0,0.0,-1.00,0.03,0.00,1.00000,0.00003,0.00000,0.00000,0.045,0.0000
2026,2,28,12:31:54.633,-0.414,192,0.0,0.0,0.0,-0.99,0.03,0.00,1.00000,0.00003,0.00000,0.00000,0.045,0.0000
2026,2,28,12:31:54.635,-0.412,194,0.3,0.0,0.1,-0.99,0.03,0.00,1.00000,0.00003,0.00000,0.00000,0.045,0.0000
2026,2,28,12:31:54.637,-0.410,196,0.1,0.0,0.1,-1.00,0.03,0.00,1.00000,0.00007,0.00000,0.00000,0.045,0.0000
2026,2,28,12:31:54.639,-0.408,198,0.3,0.0,0.0,-0.99,0.03,0.00,1.00000,0.00007,0.00000,0.00000,0.045,0.0000
2026,2,28,12:31:54.641,-0.406,200,0.4,0.0,0.0,-1.00,0.03,0.00,1.00000,0.00007,0.00000,0.00000,0.045,0.0000
2026,2,28,12:31:54.643,-0.404,202,0.4,0.0,0.1,-1.00,0.03,0.00,1.00000,0.00007,0.00000,0.00000,0.046,0.0000
2026,2,28,12:31:54.645,-0.402,204,0.4,0.0,0.1,-1.04,0.03,0.00,1.00000,0.00007,0.00000,0.00000,0.045,0.0000
2026,2,28,12:31:54.647,-0.400,206,0.7,0.0,0.1,-0.98,0.09,0.04,1.00000,0.00010,0.00000,0.00000,0.045,0.0000
2026,2,28,12:31:54.649,-0.398,208,1.4,0.0,0.0,-1.02,-0.09,-0.07,1.00000,0.00013,0.00000,0.00000,0.045,0.0000
2026,2,28,12:31:54.651,-0.396,210,2.2,0.1,-0.1,-0.96,-0.09,-0.07,1.00000,0.00017,0.00000,0.00000,0.045,0.0000
2026,2,28,12:31:54.653,-0.394,212,1.2,0.0,-0.1,-0.98,0.22,0.05,1.00000,0.00017,0.00000,0.00000,0.045,0.0000
2026,2,28,12:31:54.655,-0.392,214,2.2,0.3,0.0,-1.02,0.15,0.18,1.00000,0.00023,0.00000,0.00000,0.045,0.0000
2026,2,28,12:31:54.657,-0.390,216,1.9,0.0,0.1,-1.04,-0.01,-0.01,1.00000,0.00027,0.00000,0.00000,0.045,0.0000
2026,2,28,12:31:54.659,-0.388,218,1.7,-0.6,0.1,-0.99,0.10,0.00,1.00000,0.00030,0.00000,0.00000,0.045,0.0000
2026,2,28,12:31:54.661,-0.386,220,2.8,-0.2,0.2,-1.01,-0.04,0.00,1.00000,0.00033,0.00000,0.00000,0.045,0.0000
2026,2,28,12:31:54.663,-0.384,222,1.2,-0.5,-0.1,-1.01,0.01,-0.01,1.00000,0.00037,0.00000,0.00000,0.045,0.0000
2026,2,28,12:31:54.665,-0.382,224,0.8,0.7,0.1,-0.99,0.17,0.04,1.00000,0.00037,0.00000,0.00000,0.045,0.0000
2026,2,28,12:31:54.667,-0.380,226,0.5,-0.6,0.2,-0.98,0.02,0.04,1.00000,0.00040,0.00000,0.00000,0.045,0.0000
2026,2,28,12:31:54.669,-0.378,228,1.7,-0.5,0.1,-0.99,-0.04,-0.02,0.99997,0.00040,0.00000,0.00000,0.045,0.0000
2026,2,28,12:31:54.671,-0.376,230,0.8,-0.3,0.0,-1.00,0.01,-0.09,0.99997,0.00043,0.00000,0.00000,0.045,0.0000
2026,2,28,12:31:54.673,-0.374,232,0.7,0.4,0.1,-1.00,0.02,0.01,0.99997,0.00043,0.00000,0.00000,0.045,0.0000
2026,2,28,12:31:54.675,-0.372,234,0.4,-0.2,0.1,-1.00,0.02,-0.02,0.99997,0.00043,0.00000,0.00000,0.045,0.0000
2026,2,28,12:31:54.677,-0.370,236,1.0,0.0,0.2,-1.01,0.03,0.00,0.99997,0.00047,0.00000,0.00000,0.046,0.0000
2026,2,28,12:31:54.679,-0.368,238,1.7,-0.5,0.1,-1.00,0.01,-0.05,0.99997,0.00050,0.00000,0.00000,0.045,0.0000
2026,2,28,12:31:54.681,-0.366,240,0.5,0.0,0.0,-1.00,0.01,-0.01,0.99997,0.00050,0.00000,0.00000,0.045,0.0000
2026,2,28,12:31:54.683,-0.364,242,0.1,0.4,0.0,-0.99,0.07,0.05,0.99997,0.00050,0.00000,0.00000,0.046,0.0000
2026,2,28,12:31:54.685,-0.362,244,-0.6,0.0,0.1,-0.99,0.01,0.00,0.99997,0.00050,0.00000,0.00000,0.045,0.0000
2026,2,28,12:31:54.687,-0.360,246,-0.5,-0.2,0.0,-0.98,0.00,0.00,0.99997,0.00050,0.00000,0.00000,0.045,0.0000
2026,2,28,12:31:54.689,-0.358,248,-1.6,0.0,0.1,-1.00,0.03,-0.06,0.99997,0.00047,0.00000,0.00000,0.045,0.0000
2026,2,28,12:31:54.691,-0.356,0,-2.3,0.4,0.1,-0.99,0.03,0.02,0.99997,0.00043,0.00000,0.00000,0.045,0.0000
2026,2,28,12:31:54.693,-0.354,2,-2.4,0.0,0.0,-1.02,0.02,-0.07,0.99997,0.00037,0.00000,0.00000,0.045,0.0000
2026,2,28,12:31:54.695,-0.352,4,-2.2,0.0,0.0,-1.01,0.01,-0.03,0.99997,0.00033,0.00000,0.00000,0.045,0.0000
2026,2,28,12:31:54.697,-0.350,6,-2.0,0.1,0.1,-0.99,-0.05,-0.08,0.99997,0.00030,0.00000,0.00000,0.044,0.0000
2026,2,28,12:31:54.699,-0.348,8,-1.9,0.1,0.0,-1.06,-0.04,-0.08,1.00000,0.00027,0.00000,0.00000,0.045,0.0000
2026,2,28,12:31:54.701,-0.346,10,-1.5,0.7,0.0,-1.08,0.05,-0.02,1.00000,0.00023,0.00000,0.00000,0.045,0.0000
2026,2,28,12:31:54.703,-0.344,12,-1.7,0.1,0.1,-1.11,0.10,-0.05,1.00000,0.00020,0.00000,0.00000,0.045,0.0000
2026,2,28,12:31:54.705,-0.342,14,-0.9,0.1,0.3,-1.17,0.02,-0.01,1.00000,0.00020,0.00000,0.00000,0.044,0.0000
2026,2,28,12:31:54.707,-0.340,16,-3.0,0.0,0.1,-0.95,-0.07,-0.21,1.00000,0.00013,0.00000,0.00000,0.045,0.0000
2026,2,28,12:31:54.709,-0.338,18,-7.1,0.4,-0.4,-1.00,-0.42,-0.74,1.00000,0.00003,0.00000,0.00000,0.045,0.0000
2026,2,28,12:31:54.711,-0.336,20,-8.6,1.8,-0.1,-0.49,0.41,-0.40,1.00000,-0.00010,0.00003,0.00000,0.045,0.0000
2026,2,28,12:31:54.713,-0.334,22,-6.8,4.3,-0.1,-0.58,0.94,-0.18,1.00000,-0.00023,0.00010,0.00000,0.045,0.0000
2026,2,28,12:31:54.715,-0.332,24,-1.9,1.8,2.6,-1.01,1.09,0.27,1.00000,-0.00027,0.00013,0.00003,0.045,0.0000
2026,2,28,12:31:54.717,-0.330,26,-3.7,-4.4,2.9,-0.81,0.29,0.19,1.00000,-0.00033,0.00007,0.00010,0.045,0.0000
2026,2,28,12:31:54.719,-0.328,28,-5.8,-6.1,2.7,-1.08,-0.50,0.00,0.99997,-0.00043,0.00000,0.00013,0.045,0.0000
2026,2,28,12:31:54.721,-0.326,30,-5.5,-2.1,2.0,-1.30,-0.68,0.00,0.99997,-0.00053,-0.00003,0.00017,0.045,0.0000
2026,2,28,12:31:54.723,-0.324,32,-11.7,-1.7,0.0,-0.93,-0.26,0.00,0.99997,-0.00073,-0.00007,0.00017,0.045,0.0000
2026,2,28,12:31:54.725,-0.322,34,-13.9,0.0,-0.1,-1.00,-0.11,0.20,0.99997,-0.00097,-0.00007,0.00017,0.045,0.0000
2026,2,28,12:31:54.727,-0.320,36,-14.2,-1.7,0.0,-1.08,-0.08,0.46,0.99997,-0.00120,-0.00010,0.00017,0.045,0.0000
2026,2,28,12:31:54.729,-0.318,38,-12.5,-1.6,0.0,-1.03,-0.10,0.23,0.99997,-0.00143,-0.00013,0.00017,0.045,0.0000
2026,2,28,12:31:54.731,-0.316,40,-11.5,-1.7,-0.7,-1.07,-0.11,-0.23,0.99997,-0.00163,-0.00017,0.00017,0.044,0.0000
2026,2,28,12:31:54.733,-0.314,42,-10.8,0.8,-0.7,-0.96,-0.02,-0.06,0.99997,-0.00183,-0.00017,0.00013,0.045,0.0000
2026,2,28,12:31:54.735,-0.312,44,-12.9,0.3,-0.8,-1.08,0.00,-0.10,0.99997,-0.00207,-0.00013,0.00013,0.045,0.0000
2026,2,28,12:31:54.737,-0.310,46,-15.7,-0.2,-1.1,-1.06,0.21,-0.18,0.99997,-0.00233,-0.00013,0.00010,0.045,0.0000
2026,2,28,12:31:54.739,-0.308,48,-16.2,-0.5,-1.0,-0.97,0.21,-0.22,0.99997,-0.00260,-0.00017,0.00010,0.045,0.0000
2026,2,28,12:31:54.741,-0.306,50,-15.6,-0.9,-1.2,-0.96,-0.11,-0.14,0.99997,-0.00290,-0.00017,0.00007,0.045,0.0000
2026,2,28,12:31:54.743,-0.304,52,-17.0,0.3,-1.7,-1.03,0.11,-0.04,0.99997,-0.00317,-0.00017,0.00003,0.045,0.0000
2026,2,28,12:31:54.745,-0.302,54,-13.8,-0.3,-1.4,-0.98,0.31,-0.20,0.99997,-0.00343,-0.00017,0.00000,0.045,0.0000
2026,2,28,12:31:54.747,-0.300,56,-13.8,-0.6,-0.5,-0.97,0.47,-0.23,0.99997,-0.00367,-0.00020,0.00000,0.045,0.0000
2026,2,28,12:31:54.749,-0.298,58,-13.4,0.0,-0.1,-0.91,0.35,-0.03,0.99997,-0.00390,-0.00020,0.00000,0.045,0.0000
2026,2,28,12:31:54.751,-0.296,60,-16.9,0.0,-0.1,-0.97,0.20,-0.15,0.99997,-0.00420,-0.00020,0.00000,0.046,0.0000
2026,2,28,12:31:54.753,-0.294,62,-16.0,0.6,0.1,-0.94,-0.06,0.03,0.99997,-0.00447,-0.00017,0.00000,0.045,0.0000
2026,2,28,12:31:54.755,-0.292,64,-14.3,-0.7,0.5,-0.99,-0.19,-0.04,0.99997,-0.00473,-0.00020,0.00000,0.045,0.0000
2026,2,28,12:31:54.757,-0.290,66,-13.9,-0.6,0.6,-1.00,-0.11,0.08,0.99997,-0.00497,-0.00020,0.00000,0.045,0.0000
2026,2,28,12:31:54.759,-0.288,68,-14.9,-0.3,0.2,-1.04,0.14,-0.21,0.99997,-0.00523,-0.00020,0.00000,0.045,0.0000
2026,2,28,12:31:54.761,-0.286,70,-13.2,0.0,0.1,-0.98,0.21,-0.09,0.99997,-0.00547,-0.00020,0.00003,0.045,0.0000
2026,2,28,12:31:54.763,-0.284,72,-15.0,-1.2,0.1,-0.99,0.14,-0.16,0.99997,-0.00573,-0.00023,0.00003,0.045,0.0000
2026,2,28,12:31:54.765,-0.282,74,-15.6,-1.9,-0.1,-1.00,0.00,-0.08,0.99997,-0.00600,-0.00027,0.00000,0.045,0.0000
2026,2,28,12:31:54.767,-0.280,76,-16.9,-1.4,-0.4,-1.03,-0.08,-0.04,0.99997,-0.00630,-0.00030,0.00000,0.045,0.0000
2026,2,28,12:31:54.769,-0.278,78,-19.0,-1.6,-0.4,-0.99,-0.05,0.16,0.99997,-0.00663,-0.00033,0.00000,0.045,0.0000
2026,2,28,12:31:54.771,-0.276,80,-19.0,-0.9,-0.3,-0.96,-0.03,0.12,0.99997,-0.00697,-0.00033,0.00000,0.045,0.0000
2026,2,28,12:31:54.773,-0.274,82,-19.4,-2.1,-0.1,-0.97,0.10,-0.21,0.99997,-0.00730,-0.00037,0.00000,0.045,0.0000
2026,2,28,12:31:54.775,-0.272,84,-17.6,-1.6,-0.1,-0.97,0.07,-0.09,0.99997,-0.00760,-0.00040,0.00000,0.045,0.0000
2026,2,28,12:31:54.777,-0.270,86,-18.1,-1.4,-0.5,-0.98,0.06,0.11,0.99997,-0.00793,-0.00043,0.00000,0.045,0.0000
2026,2,28,12:31:54.779,-0.268,88,-23.3,-2.1,-1.1,-1.00,0.08,0.06,0.99993,-0.00833,-0.00047,0.00000,0.045,0.0000
2026,2,28,12:31:54.781,-0.266,90,-18.8,-2.4,-0.7,-0.98,0.00,0.07,0.99993,-0.00867,-0.00050,-0.00003,0.045,0.0000
2026,2,28,12:31:54.783,-0.264,92,-19.4,-3.0,-0.4,-1.00,0.03,0.14,0.99993,-0.00900,-0.00057,-0.00003,0.045,0.0000
2026,2,28,12:31:54.785,-0.262,94,-18.7,-2.8,-0.8,-0.98,0.04,0.25,0.99993,-0.00933,-0.00060,-0.00003,0.044,0.0000
2026,2,28,12:31:54.787,-0.260,96,-18.3,-2.6,-0.7,-1.01,0.06,-0.01,0.99993,-0.00963,-0.00067,-0.00007,0.044,0.0000
2026,2,28,12:31:54.789,-0.258,98,-14.8,-2.1,-0.3,-0.99,0.00,0.08,0.99993,-0.00990,-0.00070,-0.00007,0.045,0.0000
2026,2,28,12:31:54.791,-0.256,100,-14.1,-2.1,-0.3,-1.01,0.00,0.03,0.99993,-0.01013,-0.00073,-0.00007,0.045,0.0000
2026,2,28,12:31:54.793,-0.254,102,-13.9,-1.6,-0.5,-0.99,-0.02,0.14,0.99993,-0.01040,-0.00077,-0.00007,0.045,0.0000
2026,2,28,12:31:54.795,-0.252,104,-13.1,-0.5,-0.4,-0.98,-0.01,0.12,0.99993,-0.01063,-0.00077,-0.00010,0.045,0.0000
2026,2,28,12:31:54.797,-0.250,106,-11.5,-0.9,-0.5,-1.01,0.00,-0.02,0.99993,-0.01083,-0.00080,-0.00010,0.045,0.0000
2026,2,28,12:31:54.799,-0.248,108,-7.6,-0.9,-0.4,-1.00,-0.01,-0.01,0.99993,-0.01097,-0.00080,-0.00010,0.045,0.0000
2026,2,28,12:31:54.801,-0.246,110,-6.4,-1.6,-0.7,-1.02,0.05,-0.13,0.99993,-0.01107,-0.00083,-0.00013,0.045,0.0000
2026,2,28,12:31:54.803,-0.244,112,-5.2,-0.6,-0.5,-0.99,0.10,-0.08,0.99993,-0.01117,-0.00083,-0.00013,0.045,0.0000
2026,2,28,12:31:54.805,-0.242,114,-4.3,-1.4,-0.5,-1.01,0.14,-0.11,0.99993,-0.01123,-0.00087,-0.00013,0.045,0.0000
2026,2,28,12:31:54.807,-0.240,116,-2.3,-1.9,-0.1,-0.99,0.15,-0.03,0.99993,-0.01127,-0.00090,-0.00013,0.045,0.0000
2026,2,28,12:31:54.809,-0.238,118,-1.2,-2.3,0.0,-1.02,0.11,0.02,0.99993,-0.01130,-0.00093,-0.00013,0.045,0.0000
2026,2,28,12:31:54.811,-0.236,120,0.0,-1.6,-0.3,-0.83,-0.06,-0.08,0.99993,-0.01130,-0.00097,-0.00013,0.045,0.0000
2026,2,28,12:31:54.813,-0.234,122,1.8,-1.9,-0.1,-1.00,0.04,0.01,0.99993,-0.01127,-0.00100,-0.00013,0.045,0.0000
2026,2,28,12:31:54.815,-0.232,124,4.5,-1.3,0.2,-0.95,0.18,0.28,0.99993,-0.01120,-0.00103,-0.00013,0.045,0.0000
2026,2,28,12:31:54.817,-0.230,126,5.2,-2.8,0.2,-0.99,0.12,0.17,0.99993,-0.01110,-0.00110,-0.00013,0.046,0.0000
2026,2,28,12:31:54.819,-0.228,128,5.9,-1.9,0.2,-1.06,0.06,0.14,0.99993,-0.01100,-0.00113,-0.00013,0.045,0.0000
2026,2,28,12:31:54.821,-0.226,130,6.4,-2.3,0.2,-1.03,0.00,0.01,0.99993,-0.01087,-0.00117,-0.00013,0.045,0.0000
2026,2,28,12:31:54.823,-0.224,132,6.4,-1.9,0.3,-1.05,-0.06,0.02,0.99993,-0.01077,-0.00120,-0.00013,0.045,0.0000
2026,2,28,12:31:54.825,-0.222,134,6.4,-1.9,0.3,-1.06,-0.02,0.00,0.99993,-0.01067,-0.00123,-0.00010,0.045,0.0000
2026,2,28,12:31:54.827,-0.220,136,5.4,-1.3,0.1,-0.99,0.08,0.10,0.99993,-0.01057,-0.00123,-0.00010,0.045,0.0000
2026,2,28,12:31:54.829,-0.218,138,3.9,-1.6,0.0,-0.95,0.08,0.01,0.99993,-0.01050,-0.00127,-0.00010,0.045,0.0000
2026,2,28,12:31:54.831,-0.216,140,3.2,-1.7,0.1,-0.92,0.01,0.04,0.99993,-0.01043,-0.00130,-0.00010,0.045,0.0000
2026,2,28,12:31:54.833,-0.214,142,2.4,-1.9,-0.1,-0.99,0.01,-0.08,0.99993,-0.01040,-0.00133,-0.00010,0.045,0.0000
2026,2,28,12:31:54.835,-0.212,144,0.3,-1.3,-0.5,-0.98,0.02,0.03,0.99993,-0.01037,-0.00137,-0.00013,0.045,0.0000
2026,2,28,12:31:54.837,-0.210,146,-0.9,-1.0,-0.7,-1.02,0.00,0.03,0.99993,-0.01040,-0.00140,-0.00013,0.045,0.0000
2026,2,28,12:31:54.839,-0.208,148,-2.2,-1.3,-0.7,-1.01,0.00,0.04,0.99993,-0.01043,-0.00140,-0.00013,0.045,0.0000
2026,2,28,12:31:54.841,-0.206,150,-2.3,-1.2,-0.7,-1.05,0.01,0.07,0.99993,-0.01047,-0.00143,-0.00017,0.044,0.0000
2026,2,28,12:31:54.843,-0.204,152,-4.0,-1.2,-0.5,-1.00,0.11,0.10,0.99993,-0.01053,-0.00147,-0.00017,0.045,0.0000
2026,2,28,12:31:54.845,-0.202,154,-5.0,-0.9,-0.7,-1.02,0.09,0.13,0.99993,-0.01063,-0.00147,-0.00020,0.045,0.0000
2026,2,28,12:31:54.847,-0.200,156,-5.1,-0.6,-1.0,-0.99,0.02,0.05,0.99993,-0.01073,-0.00147,-0.00020,0.045,0.0000
2026,2,28,12:31:54.849,-0.198,158,-4.4,-0.9,-0.7,-0.99,0.00,0.06,0.99993,-0.01080,-0.00150,-0.00020,0.045,0.0000
2026,2,28,12:31:54.851,-0.196,160,-4.0,-0.7,-0.8,-0.98,0.03,0.04,0.99993,-0.01087,-0.00150,-0.00023,0.045,0.0000
2026,2,28,12:31:54.853,-0.194,162,-4.4,-0.5,-1.1,-0.96,0.05,0.04,0.99993,-0.01097,-0.00153,-0.00027,0.045,0.0000
2026,2,28,12:31:54.855,-0.192,164,-3.6,0.0,-1.1,-1.02,0.07,0.03,0.99993,-0.01100,-0.00153,-0.00027,0.045,0.0000
2026,2,28,12:31:54.857,-0.190,166,-3.0,-0.6,-1.0,-0.92,0.06,0.01,0.99993,-0.01107,-0.00153,-0.00030,0.045,0.0000
2026,2,28,12:31:54.859,-0.188,168,-2.0,-0.5,-0.7,-1.02,0.02,0.02,0.99993,-0.01110,-0.00153,-0.00030,0.045,0.0000
2026,2,28,12:31:54.861,-0.186,170,-2.2,0.0,-0.7,-0.96,0.02,0.07,0.99993,-0.01113,-0.00153,-0.00030,0.045,0.0000
2026,2,28,12:31:54.863,-0.184,172,-2.2,0.0,-0.5,-1.02,-0.01,0.04,0.99993,-0.01117,-0.00153,-0.00033,0.045,0.0000
2026,2,28,12:31:54.865,-0.182,174,-1.7,-0.2,-0.5,-1.00,-0.01,0.06,0.99993,-0.01120,-0.00153,-0.00033,0.045,0.0000
2026,2,28,12:31:54.867,-0.180,176,-0.5,-0.2,-0.4,-1.00,0.00,0.07,0.99993,-0.01123,-0.00157,-0.00033,0.045,0.0000
2026,2,28,12:31:54.869,-0.178,178,-0.2,-0.2,-0.4,-1.00,0.01,0.02,0.99993,-0.01123,-0.00157,-0.00037,0.045,0.0000
2026,2,28,12:31:54.871,-0.176,180,-0.6,0.3,-0.5,-1.00,0.06,0.00,0.99993,-0.01123,-0.00157,-0.00037,0.045,0.0000
2026,2,28,12:31:54.873,-0.174,182,-0.3,0.1,-0.5,-0.99,0.08,0.02,0.99993,-0.01123,-0.00153,-0.00037,0.045,0.0000
2026,2,28,12:31:54.875,-0.172,184,0.5,-0.2,-0.3,-0.94,0.05,0.05,0.99993,-0.01123,-0.00157,-0.00037,0.046,0.0000
2026,2,28,12:31:54.877,-0.170,186,1.4,0.0,-0.1,-0.98,0.01,0.05,0.99993,-0.01120,-0.00157,-0.00037,0.045,0.0000
2026,2,28,12:31:54.879,-0.168,188,1.7,0.0,-0.1,-1.00,-0.01,0.08,0.99993,-0.01117,-0.00157,-0.00040,0.045,0.0000
2026,2,28,12:31:54.881,-0.166,190,2.1,0.0,-0.1,-1.00,-0.02,0.06,0.99993,-0.01113,-0.00157,-0.00040,0.045,0.0000
2026,2,28,12:31:54.883,-0.164,192,3.2,-0.3,0.0,-1.03,0.00,0.06,0.99993,-0.01110,-0.00157,-0.00040,0.045,0.0000
2026,2,28,12:31:54.885,-0.162,194,4.0,-0.3,0.0,-1.07,0.00,0.04,0.99993,-0.01100,-0.00157,-0.00040,0.045,0.0000
2026,2,28,12:31:54.887,-0.160,196,3.9,-0.2,-0.1,-0.83,0.00,0.03,0.99993,-0.01093,-0.00157,-0.00040,0.045,0.0000
2026,2,28,12:31:54.889,-0.158,198,4.2,0.0,-0.3,-0.80,-0.02,0.02,0.99993,-0.01087,-0.00157,-0.00040,0.045,0.0000
2026,2,28,12:31:54.891,-0.156,200,5.2,-0.5,-0.3,-1.32,-0.02,-0.14,0.99993,-0.01077,-0.00160,-0.00040,0.045,0.0000
2026,2,28,12:31:54.893,-0.154,202,7.3,0.4,0.0,-1.21,0.07,0.05,0.99993,-0.01067,-0.00157,-0.00040,0.045,0.0000
2026,2,28,12:31:54.895,-0.152,204,7.1,-0.9,-0.1,-3.26,0.11,0.00,0.99993,-0.01053,-0.00160,-0.00040,0.045,0.0000
2026,2,28,12:31:54.897,-0.150,206,13.7,0.0,1.3,-2.33,0.49,1.45,0.99993,-0.01030,-0.00160,-0.00037,0.045,0.0000
2026,2,28,12:31:54.899,-0.148,208,20.6,-6.9,-0.1,-14.01,-1.65,-2.48,0.99993,-0.00993,-0.00170,-0.00040,0.045,0.0000
2026,2,28,12:31:54.901,-0.146,210,31.9,-2.1,16.4,8.69,2.99,2.90,0.99993,-0.00937,-0.00173,-0.00010,0.045,0.0000
2026,2,28,12:31:54.903,-0.144,212,12.7,-12.6,-12.3,-7.60,3.95,0.91,0.99993,-0.00913,-0.00197,-0.00030,0.045,0.0000
2026,2,28,12:31:54.905,-0.142,214,10.8,-6.9,5.2,-9.62,1.22,0.36,0.99993,-0.00897,-0.00210,-0.00020,0.045,0.0000
2026,2,28,12:31:54.907,-0.140,216,23.8,8.8,4.3,-6.80,-1.95,-3.52,0.99993,-0.00853,-0.00193,-0.00013,0.045,0.0000
2026,2,28,12:31:54.909,-0.138,218,16.1,-10.4,-5.0,-8.47,1.16,-0.12,0.99993,-0.00827,-0.00213,-0.00023,0.045,0.0000
2026,2,28,12:31:54.911,-0.136,220,17.8,7.3,-2.8,-9.32,-0.73,1.65,0.99993,-0.00793,-0.00200,-0.00027,0.045,0.0000
2026,2,28,12:31:54.913,-0.134,222,6.0,-22.4,-8.1,-10.30,-2.13,-3.75,0.99993,-0.00783,-0.00240,-0.00040,0.044,0.0000
2026,2,28,12:31:54.915,-0.132,224,20.4,31.4,-0.5,-8.40,0.04,1.46,0.99997,-0.00750,-0.00183,-0.00043,0.044,0.0000
2026,2,28,12:31:54.917,-0.130,226,9.6,-12.1,-3.5,-10.59,0.87,-1.48,0.99997,-0.00730,-0.00207,-0.00050,0.045,0.0000
2026,2,28,12:31:54.919,-0.128,228,9.5,0.1,-3.3,-9.86,-0.67,-0.36,0.99997,-0.00713,-0.00203,-0.00053,0.045,0.0000
2026,2,28,12:31:54.921,-0.126,230,19.4,-8.7,-1.7,-10.34,0.38,0.15,0.99997,-0.00680,-0.00220,-0.00057,0.045,0.0000
2026,2,28,12:31:54.923,-0.124,232,17.8,5.9,1.2,-10.12,0.34,0.44,0.99997,-0.00650,-0.00210,-0.00057,0.045,0.0000
2026,2,28,12:31:54.925,-0.122,234,3.3,3.6,-2.4,-11.02,-0.12,0.56,0.99997,-0.00643,-0.00203,-0.00060,0.045,0.0000
2026,2,28,12:31:54.927,-0.120,236,4.6,4.3,-2.8,-10.48,0.01,0.58,0.99997,-0.00637,-0.00197,-0.00063,0.046,0.0000
2026,2,28,12:31:54.929,-0.118,238,7.4,-3.0,0.0,-10.69,0.29,-0.53,0.99997,-0.00623,-0.00200,-0.00063,0.045,0.0000
2026,2,28,12:31:54.931,-0.116,240,10.5,4.2,2.9,-10.56,0.87,0.86,0.99997,-0.00603,-0.00193,-0.00060,0.045,0.0000
2026,2,28,12:31:54.933,-0.114,242,9.5,8.4,0.8,-10.73,0.43,0.53,0.99997,-0.00587,-0.00180,-0.00060,0.045,0.0000
2026,2,28,12:31:54.935,-0.112,244,8.1,4.9,1.0,-10.90,-0.31,-0.03,0.99997,-0.00573,-0.00170,-0.00057,0.045,0.0000
2026,2,28,12:31:54.937,-0.110,246,8.1,2.7,0.9,-11.00,-0.27,-0.69,0.99997,-0.00560,-0.00167,-0.00053,0.045,0.0000
2026,2,28,12:31:54.939,-0.108,248,15.8,2.2,3.4,-10.81,-0.21,-0.35,0.99997,-0.00530,-0.00160,-0.00050,0.045,0.0000
2026,2,28,12:31:54.941,-0.106,0,-15.6,5.5,2.9,-10.90,-0.04,-0.40,0.99997,-0.00560,-0.00153,-0.00043,0.045,0.0000
2026,2,28,12:31:54.943,-0.104,2,-29.0,6.2,-0.1,-10.88,-0.21,-0.46,0.99997,-0.00610,-0.00140,-0.00043,0.045,0.0000
2026,2,28,12:31:54.945,-0.102,4,-7.8,6.9,0.6,-11.03,0.13,0.04,0.99997,-0.00623,-0.00130,-0.00043,0.045,0.0000
2026,2,28,12:31:54.947,-0.100,6,-14.9,0.0,2.0,-11.18,-0.27,0.67,0.99997,-0.00650,-0.00130,-0.00040,0.045,0.0000
2026,2,28,12:31:54.949,-0.098,8,-16.7,0.7,2.3,-11.24,-0.20,-0.17,0.99997,-0.00680,-0.00127,-0.00037,0.045,0.0000
2026,2,28,12:31:54.951,-0.096,10,-25.8,4.1,1.3,-10.90,0.57,0.72,0.99997,-0.00723,-0.00120,-0.00033,0.045,0.0000
2026,2,28,12:31:54.953,-0.094,12,-32.0,2.7,0.2,-11.04,0.06,0.29,0.99997,-0.00780,-0.00117,-0.00033,0.044,0.0000
2026,2,28,12:31:54.955,-0.092,14,-25.8,-4.1,-0.3,-11.13,-0.24,-0.40,0.99993,-0.00823,-0.00123,-0.00033,0.045,0.0000
2026,2,28,12:31:54.957,-0.090,16,-20.1,-0.5,0.9,-11.12,-0.05,0.24,0.99993,-0.00860,-0.00123,-0.00033,0.045,0.0000
2026,2,28,12:31:54.959,-0.088,18,-27.5,-1.3,0.0,-11.13,0.00,-0.26,0.99993,-0.00907,-0.00127,-0.00033,0.045,0.0000
2026,2,28,12:31:54.961,-0.086,20,-30.2,1.0,-1.4,-11.17,-0.38,-0.36,0.99993,-0.00960,-0.00123,-0.00033,0.045,0.0000
2026,2,28,12:31:54.963,-0.084,22,-44.4,0.3,-0.4,-11.11,0.21,-0.41,0.99993,-0.01040,-0.00123,-0.00037,0.045,0.0000
2026,2,28,12:31:54.965,-0.082,24,-59.7,-0.6,0.1,-11.15,0.54,-0.45,0.99993,-0.01143,-0.00127,-0.00037,0.045,0.0000
2026,2,28,12:31:54.967,-0.080,26,-47.1,2.7,0.8,-11.10,-0.26,0.00,0.99990,-0.01223,-0.00120,-0.00033,0.045,0.0000
2026,2,28,12:31:54.969,-0.078,28,-52.4,4.3,-1.1,-11.05,-0.05,0.10,0.99990,-0.01317,-0.00113,-0.00037,0.045,0.0000
2026,2,28,12:31:54.971,-0.076,30,-58.9,2.4,-1.8,-11.58,-0.14,0.06,0.99987,-0.01420,-0.00110,-0.00040,0.045,0.0000
2026,2,28,12:31:54.973,-0.074,32,-51.4,2.0,0.0,-11.51,-0.26,-0.11,0.99987,-0.01510,-0.00103,-0.00040,0.045,0.0000
2026,2,28,12:31:54.975,-0.072,34,-61.0,3.1,-0.5,-10.96,1.21,0.55,0.99987,-0.01617,-0.00100,-0.00040,0.045,0.0000
2026,2,28,12:31:54.977,-0.070,36,-58.0,0.4,-0.5,-11.06,-0.02,-1.03,0.99983,-0.01717,-0.00100,-0.00043,0.045,0.0000
2026,2,28,12:31:54.979,-0.068,38,-54.8,2.8,-0.4,-10.94,-0.29,-0.15,0.99983,-0.01813,-0.00093,-0.00043,0.045,0.0000
2026,2,28,12:31:54.981,-0.066,40,-57.3,3.5,-0.8,-10.73,0.04,0.62,0.99980,-0.01913,-0.00087,-0.00047,0.046,0.0000
2026,2,28,12:31:54.983,-0.064,42,-61.2,-1.6,-0.7,-11.07,0.27,-0.32,0.99977,-0.02020,-0.00090,-0.00047,0.045,0.0000
2026,2,28,12:31:54.985,-0.062,44,-52.4,1.8,1.9,-10.85,-0.16,0.70,0.99977,-0.02110,-0.00087,-0.00043,0.045,0.0000
2026,2,28,12:31:54.987,-0.060,46,-59.3,1.8,1.0,-11.01,0.10,0.33,0.99973,-0.02213,-0.00083,-0.00043,0.045,0.0000
2026,2,28,12:31:54.989,-0.058,48,-51.2,-0.6,0.9,-10.87,-0.05,0.13,0.99973,-0.02303,-0.00083,-0.00040,0.045,0.0000
2026,2,28,12:31:54.991,-0.056,50,-36.5,2.9,3.3,-10.94,0.30,-0.47,0.99970,-0.02367,-0.00080,-0.00033,0.045,0.0000
2026,2,28,12:31:54.993,-0.054,52,-44.6,-0.2,2.6,-10.90,0.18,-0.60,0.99970,-0.02447,-0.00080,-0.00030,0.045,0.0000
2026,2,28,12:31:54.995,-0.052,54,-33.0,5.3,2.6,-10.83,-0.02,0.09,0.99967,-0.02503,-0.00070,-0.00027,0.045,0.0000
2026,2,28,12:31:54.997,-0.050,56,-48.2,0.0,1.3,-10.83,-0.13,0.21,0.99963,-0.02587,-0.00070,-0.00023,0.045,0.0000
2026,2,28,12:31:54.999,-0.048,58,-41.8,3.9,2.9,-10.82,0.17,0.41,0.99963,-0.02660,-0.00063,-0.00020,0.045,0.0000
2026,2,28,12:31:55.001,-0.046,60,-42.1,-0.5,2.6,-10.92,0.38,-0.72,0.99960,-0.02733,-0.00063,-0.00013,0.045,0.0000
2026,2,28,12:31:55.003,-0.044,62,-35.6,4.3,2.4,-10.80,0.44,-0.10,0.99960,-0.02797,-0.00057,-0.00010,0.045,0.0000
2026,2,28,12:31:55.005,-0.042,64,-37.4,3.6,1.5,-10.88,0.19,-0.22,0.99957,-0.02860,-0.00050,-0.00007,0.045,0.0000
2026,2,28,12:31:55.007,-0.040,66,-34.1,2.9,0.2,-10.71,0.16,0.06,0.99957,-0.02920,-0.00043,-0.00007,0.045,0.0000
2026,2,28,12:31:55.009,-0.038,68,-17.1,3.1,0.6,-10.87,-0.08,-0.25,0.99953,-0.02950,-0.00040,-0.00007,0.045,0.0000
2026,2,28,12:31:55.011,-0.036,70,-24.7,2.5,0.6,-10.89,0.07,-0.62,0.99953,-0.02993,-0.00033,-0.00007,0.045,0.0000
2026,2,28,12:31:55.013,-0.034,72,-25.0,2.8,0.5,-10.74,0.10,-0.69,0.99953,-0.03037,-0.00030,-0.00003,0.045,0.0000
2026,2,28,12:31:55.015,-0.032,74,-17.8,3.9,-0.4,-10.79,0.34,-0.16,0.99950,-0.03070,-0.00023,-0.00007,0.045,0.0000
2026,2,28,12:31:55.017,-0.030,76,-15.3,3.4,-0.4,-10.68,0.42,-0.20,0.99950,-0.03097,-0.00017,-0.00007,0.045,0.0000
2026,2,28,12:31:55.019,-0.028,78,-3.7,-1.2,0.1,-10.80,0.30,-0.20,0.99950,-0.03103,-0.00020,-0.00007,0.045,0.0000
2026,2,28,12:31:55.021,-0.026,80,-7.2,-1.9,-0.3,-10.83,0.12,-0.33,0.99950,-0.03117,-0.00023,-0.00007,0.045,0.0000
2026,2,28,12:31:55.023,-0.024,82,4.0,-4.1,-1.4,-10.58,-0.24,-0.01,0.99950,-0.03107,-0.00030,-0.00010,0.045,0.0000
2026,2,28,12:31:55.025,-0.022,84,-2.4,-2.3,-1.9,-10.84,0.19,0.27,0.99950,-0.03113,-0.00033,-0.00013,0.045,0.0000
2026,2,28,12:31:55.027,-0.020,86,-4.7,-2.4,-0.3,-10.66,0.80,0.24,0.99950,-0.03120,-0.00037,-0.00013,0.045,0.0000
2026,2,28,12:31:55.029,-0.018,88,0.0,-0.9,1.3,-10.88,1.00,0.47,0.99950,-0.03120,-0.00040,-0.00010,0.045,0.0000
2026,2,28,12:31:55.031,-0.016,90,5.0,-6.8,0.6,-10.84,0.50,-0.43,0.99950,-0.03110,-0.00050,-0.00010,0.045,0.0000
2026,2,28,12:31:55.033,-0.014,92,4.5,0.4,-0.5,-10.73,0.08,-0.07,0.99950,-0.03103,-0.00050,-0.00010,0.045,0.0000
2026,2,28,12:31:55.035,-0.012,94,12.2,-3.1,-0.1,-10.68,-0.09,0.36,0.99950,-0.03083,-0.00057,-0.00010,0.045,0.0000
2026,2,28,12:31:55.037,-0.010,96,23.4,-0.5,-3.1,-10.72,-1.75,-0.20,0.99953,-0.03040,-0.00057,-0.00017,0.044,0.0000
2026,2,28,12:31:55.039,-0.008,98,23.5,-3.4,-7.1,-10.69,-1.93,-2.15,0.99953,-0.03000,-0.00063,-0.00027,0.045,0.0000
2026,2,28,12:31:55.041,-0.006,100,23.8,-0.9,-8.4,-10.68,-1.34,-1.33,0.99953,-0.02960,-0.00067,-0.00043,0.045,0.0000
2026,2,28,12:31:55.043,-0.004,102,11.2,2.9,-7.5,-10.79,-0.38,-0.54,0.99957,-0.02940,-0.00060,-0.00057,0.045,0.0000
2026,2,28,12:31:55.045,-0.002,104,16.9,1.3,-9.5,-10.51,-0.09,-0.65,0.99957,-0.02910,-0.00060,-0.00073,0.045,0.0000
2026,2,28,12:31:55.047,0.000,106,30.6,-3.5,-8.9,-11.03,-0.61,-1.19,0.99957,-0.02857,-0.00067,-0.00087,0.045,0.0000
2026,2,28,12:31:55.049,0.002,108,37.1,-7.6,-7.5,-11.30,-1.48,-1.81,0.99960,-0.02790,-0.00080,-0.00100,0.045,0.0000
2026,2,28,12:31:55.051,0.004,110,31.2,0.0,-8.1,-10.79,-0.70,-0.97,0.99960,-0.02737,-0.00080,-0.00117,0.045,0.0000
2026,2,28,12:31:55.053,0.006,112,28.7,-1.4,-8.7,-10.36,-0.04,-0.53,0.99963,-0.02687,-0.00083,-0.00130,0.044,0.0000
2026,2,28,12:31:55.055,0.008,114,29.5,-6.9,-11.0,-10.33,0.37,-0.03,0.99963,-0.02637,-0.00097,-0.00150,0.045,0.0000
2026,2,28,12:31:55.057,0.010,116,30.8,-14.6,-7.8,-11.26,-0.19,0.40,0.99963,-0.02580,-0.00123,-0.00163,0.045,0.0000
2026,2,28,12:31:55.059,0.012,118,28.5,-13.9,-4.7,-10.73,-0.01,-0.21,0.99967,-0.02530,-0.00147,-0.00170,0.046,0.0000
2026,2,28,12:31:55.061,0.014,120,19.9,-9.7,-5.9,-10.49,-0.08,0.46,0.99967,-0.02497,-0.00163,-0.00180,0.045,0.0000
2026,2,28,12:31:55.063,0.016,122,12.4,-10.4,-2.4,-11.26,-0.08,0.68,0.99967,-0.02473,-0.00183,-0.00183,0.045,0.0000
2026,2,28,12:31:55.065,0.018,124,2.2,-7.0,2.3,-10.69,-0.28,0.39,0.99967,-0.02470,-0.00193,-0.00180,0.047,0.0000
2026,2,28,12:31:55.067,0.020,126,10.2,-14.2,6.2,-10.88,-0.32,0.22,0.99967,-0.02453,-0.00220,-0.00167,0.045,0.0000
2026,2,28,12:31:55.069,0.022,128,11.5,-15.9,8.9,-10.85,-0.40,0.31,0.99967,-0.02433,-0.00247,-0.00150,0.045,0.0000
2026,2,28,12:31:55.071,0.024,130,-2.4,-11.9,9.3,-10.97,-0.66,0.10,0.99967,-0.02437,-0.00267,-0.00133,0.045,0.0000
2026,2,28,12:31:55.073,0.026,132,-6.9,-8.9,11.3,-10.64,-0.44,-0.42,0.99967,-0.02450,-0.00283,-0.00113,0.045,0.0000
2026,2,28,12:31:55.075,0.028,134,-12.2,-8.9,11.8,-10.94,-0.78,-0.65,0.99967,-0.02470,-0.00297,-0.00093,0.045,0.0000
2026,2,28,12:31:55.077,0.030,136,-15.0,-17.7,14.1,-10.98,-0.07,-0.29,0.99967,-0.02497,-0.00327,-0.00067,0.045,0.0000
2026,2,28,12:31:55.079,0.032,138,-21.3,-15.9,14.9,-10.87,0.47,-0.56,0.99967,-0.02537,-0.00353,-0.00040,0.045,0.0000
2026,2,28,12:31:55.081,0.034,140,-26.4,-15.6,16.7,-10.76,1.10,-0.06,0.99963,-0.02580,-0.00380,-0.00010,0.045,0.0000
2026,2,28,12:31:55.083,0.036,142,-26.9,-16.1,18.5,-10.94,0.50,0.66,0.99963,-0.02630,-0.00410,0.00017,0.045,0.0000
2026,2,28,12:31:55.085,0.038,144,-24.6,-21.3,20.9,-10.84,0.09,0.21,0.99960,-0.02670,-0.00443,0.00057,0.045,0.0000
2026,2,28,12:31:55.087,0.040,146,-22.3,-19.9,22.2,-11.01,0.20,0.56,0.99960,-0.02710,-0.00480,0.00093,0.045,0.0000
2026,2,28,12:31:55.089,0.042,148,-26.8,-16.7,20.6,-10.89,0.05,0.18,0.99960,-0.02757,-0.00507,0.00130,0.044,0.0000
2026,2,28,12:31:55.091,0.044,150,-23.4,-14.3,17.0,-10.93,-0.58,-0.02,0.99957,-0.02800,-0.00530,0.00163,0.045,0.0000
2026,2,28,12:31:55.093,0.046,152,-18.0,-14.9,12.9,-11.02,-0.83,-1.45,0.99957,-0.02830,-0.00557,0.00187,0.045,0.0000
2026,2,28,12:31:55.095,0.048,154,-17.7,-14.3,10.7,-11.14,-0.41,-1.03,0.99957,-0.02860,-0.00580,0.00203,0.044,0.0000
2026,2,28,12:31:55.097,0.050,156,-13.5,-7.6,10.7,-10.79,-0.48,0.90,0.99953,-0.02887,-0.00593,0.00223,0.045,0.0000
2026,2,28,12:31:55.099,0.052,158,-13.5,-4.8,9.4,-10.89,-0.46,0.57,0.99953,-0.02910,-0.00603,0.00240,0.044,0.0000
2026,2,28,12:31:55.101,0.054,160,1.8,-12.2,9.4,-10.86,0.13,-1.62,0.99953,-0.02907,-0.00623,0.00257,0.045,0.0000
2026,2,28,12:31:55.103,0.056,162,-2.3,-12.6,10.6,-10.84,1.23,-0.24,0.99953,-0.02910,-0.00643,0.00277,0.045,0.0000
2026,2,28,12:31:55.105,0.058,164,22.8,-9.0,10.4,-10.75,0.94,1.16,0.99953,-0.02870,-0.00660,0.00297,0.045,0.0000
2026,2,28,12:31:55.107,0.060,166,21.4,-7.6,5.9,-10.64,0.29,0.19,0.99957,-0.02833,-0.00673,0.00307,0.045,0.0000
2026,2,28,12:31:55.109,0.062,168,0.7,-9.4,3.3,-10.61,-0.89,-0.27,0.99957,-0.02830,-0.00690,0.00313,0.045,0.0000
2026,2,28,12:31:55.111,0.064,170,9.4,-13.6,6.1,-10.45,1.80,2.16,0.99957,-0.02813,-0.00713,0.00323,0.047,0.0000
2026,2,28,12:31:55.113,0.066,172,9.5,-9.4,11.0,-10.34,1.99,3.81,0.99957,-0.02800,-0.00730,0.00343,0.045,0.0000
2026,2,28,12:31:55.115,0.068,174,-17.1,-19.6,5.2,-10.38,0.26,-0.78,0.99953,-0.02827,-0.00763,0.00353,0.045,0.0000
2026,2,28,12:31:55.117,0.070,176,-14.5,-7.0,1.9,-10.48,0.46,0.60,0.99953,-0.02853,-0.00777,0.00357,0.045,0.0000
2026,2,28,12:31:55.119,0.072,178,3.9,-10.3,2.4,-11.21,1.21,-1.18,0.99953,-0.02847,-0.00793,0.00363,0.045,0.0000
2026,2,28,12:31:55.121,0.074,180,12.9,-2.6,4.7,-10.05,0.64,1.03,0.99953,-0.02823,-0.00797,0.00370,0.045,0.0000
2026,2,28,12:31:55.123,0.076,182,14.8,3.8,4.1,-10.88,1.18,0.23,0.99957,-0.02800,-0.00790,0.00377,0.045,0.0000
2026,2,28,12:31:55.125,0.078,184,-19.1,-5.5,0.6,-10.74,0.75,-0.99,0.99953,-0.02833,-0.00800,0.00380,0.045,0.0000
2026,2,28,12:31:55.127,0.080,186,25.5,-2.3,3.8,-10.35,-0.18,1.76,0.99957,-0.02787,-0.00803,0.00387,0.045,0.0000
2026,2,28,12:31:55.129,0.082,188,-8.2,-13.3,-4.2,-10.89,-0.96,-0.58,0.99953,-0.02800,-0.00827,0.00380,0.045,0.0000
2026,2,28,12:31:55.131,0.084,190,15.2,4.2,-4.0,-10.83,-1.45,1.08,0.99957,-0.02773,-0.00820,0.00373,0.042,0.0000
2026,2,28,12:31:55.133,0.086,192,-1.7,0.6,0.1,-10.95,1.32,-0.16,0.99957,-0.02777,-0.00820,0.00373,0.044,0.0000
2026,2,28,12:31:55.135,0.088,194,-19.4,1.4,-3.1,-11.70,1.12,0.58,0.99953,-0.02813,-0.00817,0.00367,0.045,0.0000
2026,2,28,12:31:55.137,0.090,196,46.7,8.3,-0.7,-11.02,-0.32,0.18,0.99957,-0.02730,-0.00803,0.00367,0.045,0.0000
2026,2,28,12:31:55.139,0.092,198,-7.3,-9.0,-6.6,-10.87,-0.62,-0.63,0.99957,-0.02743,-0.00817,0.00353,0.045,0.0000
2026,2,28,12:31:55.141,0.094,200,28.0,19.5,-6.7,-11.04,-1.40,0.07,0.99957,-0.02693,-0.00783,0.00343,0.045,0.0000
2026,2,28,12:31:55.143,0.096,202,34.3,9.4,-8.9,-11.04,-0.82,-0.70,0.99960,-0.02633,-0.00767,0.00327,0.045,0.0000
2026,2,28,12:31:55.145,0.098,204,10.5,13.9,-9.4,-11.04,-0.40,0.01,0.99960,-0.02617,-0.00743,0.00310,0.046,0.0000
2026,2,28,12:31:55.147,0.100,206,5.9,9.7,-8.8,-10.93,0.49,-0.62,0.99960,-0.02607,-0.00727,0.00293,0.045,0.0000
2026,2,28,12:31:55.149,0.102,208,28.7,3.2,-5.0,-10.96,0.53,-0.54,0.99963,-0.02557,-0.00723,0.00287,0.046,0.0000
2026,2,28,12:31:55.151,0.104,210,29.0,9.7,-3.9,-11.09,0.49,-0.17,0.99963,-0.02503,-0.00707,0.00277,0.045,0.0000
2026,2,28,12:31:55.153,0.106,212,12.4,6.6,-5.7,-10.90,0.00,-0.20,0.99963,-0.02483,-0.00693,0.00267,0.045,0.0000
2026,2,28,12:31:55.155,0.108,214,25.7,8.4,-3.6,-11.05,0.01,0.16,0.99967,-0.02437,-0.00680,0.00260,0.045,0.0000
2026,2,28,12:31:55.157,0.110,216,26.2,1.0,-2.2,-10.98,0.33,0.49,0.99967,-0.02393,-0.00677,0.00257,0.045,0.0000
2026,2,28,12:31:55.159,0.112,218,23.9,2.8,-2.2,-11.00,0.32,0.67,0.99967,-0.02350,-0.00673,0.00253,0.045,0.0000
2026,2,28,12:31:55.161,0.114,220,21.3,0.3,-0.7,-11.07,0.51,0.36,0.99970,-0.02313,-0.00670,0.00253,0.046,0.0000
2026,2,28,12:31:55.163,0.116,222,28.0,3.6,1.9,-11.03,0.55,0.90,0.99970,-0.02263,-0.00667,0.00257,0.045,0.0000
2026,2,28,12:31:55.165,0.118,224,25.6,-2.8,2.2,-11.05,0.18,0.09,0.99970,-0.02220,-0.00670,0.00260,0.045,0.0000
2026,2,28,12:31:55.167,0.120,226,29.0,-1.6,4.4,-11.05,-0.04,0.22,0.99973,-0.02170,-0.00673,0.00270,0.045,0.0000
2026,2,28,12:31:55.169,0.122,228,30.6,-1.7,5.5,-11.23,-0.10,0.30,0.99973,-0.02117,-0.00677,0.00280,0.045,0.0000
2026,2,28,12:31:55.171,0.124,230,25.7,-3.0,5.1,-11.11,-0.22,-0.03,0.99973,-0.02070,-0.00680,0.00287,0.045,0.0000
2026,2,28,12:31:55.173,0.126,232,27.4,-1.0,5.9,-11.06,-0.18,0.24,0.99977,-0.02023,-0.00680,0.00300,0.045,0.0000
2026,2,28,12:31:55.175,0.128,234,28.5,-3.7,6.2,-11.06,-0.16,0.21,0.99977,-0.01973,-0.00687,0.00310,0.045,0.0000
2026,2,28,12:31:55.177,0.130,236,28.3,-3.1,5.8,-11.21,-0.16,0.07,0.99977,-0.01923,-0.00693,0.00320,0.046,0.0000
2026,2,28,12:31:55.179,0.132,238,25.9,-2.0,4.1,-11.06,-0.03,-0.16,0.99977,-0.01877,-0.00697,0.00330,0.045,0.0000
2026,2,28,12:31:55.181,0.134,240,26.3,-2.6,2.3,-11.07,0.03,-0.26,0.99980,-0.01833,-0.00700,0.00333,0.045,0.0000
2026,2,28,12:31:55.183,0.136,242,28.3,-2.4,0.8,-11.09,-0.05,-0.48,0.99980,-0.01783,-0.00703,0.00337,0.045,0.0000
2026,2,28,12:31:55.185,0.138,244,27.0,-1.6,-0.7,-11.17,-0.10,-0.42,0.99980,-0.01737,-0.00707,0.00333,0.045,0.0000
2026,2,28,12:31:55.187,0.140,246,27.4,0.7,-1.7,-11.26,-0.14,-0.10,0.99980,-0.01687,-0.00707,0.00330,0.045,0.0000
2026,2,28,12:31:55.189,0.142,248,27.3,1.0,-1.8,-11.16,-0.46,0.08,0.99983,-0.01640,-0.00703,0.00330,0.045,0.0000
2026,2,28,12:31:55.191,0.144,0,26.6,1.8,-1.9,-11.24,-0.27,-0.06,0.99983,-0.01593,-0.00700,0.00327,0.045,0.0000
2026,2,28,12:31:55.193,0.146,2,26.6,0.3,-1.9,-11.33,-0.14,-0.28,0.99983,-0.01547,-0.00700,0.00323,0.045,0.0000
2026,2,28,12:31:55.195,0.148,4,26.3,1.8,-2.2,-11.38,-0.01,-0.18,0.99983,-0.01500,-0.00697,0.00320,0.045,0.0000
2026,2,28,12:31:55.197,0.150,6,25.5,3.6,-2.1,-10.75,0.30,-0.26,0.99983,-0.01457,-0.00690,0.00313,0.045,0.0000
2026,2,28,12:31:55.199,0.152,8,24.8,3.9,-1.7,-11.47,0.22,-0.17,0.99987,-0.01413,-0.00683,0.00313,0.046,0.0000
2026,2,28,12:31:55.201,0.154,10,28.5,5.2,-0.3,-11.32,0.14,0.16,0.99987,-0.01363,-0.00673,0.00313,0.045,0.0000
2026,2,28,12:31:55.203,0.156,12,26.0,1.3,-0.7,-11.42,0.05,-0.23,0.99987,-0.01317,-0.00670,0.00310,0.046,0.0000
2026,2,28,12:31:55.205,0.158,14,28.4,5.3,0.8,-11.29,0.01,0.36,0.99987,-0.01267,-0.00663,0.00313,0.045,0.0000
2026,2,28,12:31:55.207,0.160,16,25.0,4.2,0.3,-11.34,0.19,0.06,0.99987,-0.01223,-0.00653,0.00313,0.045,0.0000
2026,2,28,12:31:55.209,0.162,18,27.7,4.8,1.6,-11.27,0.13,0.38,0.99990,-0.01177,-0.00647,0.00317,0.045,0.0000
2026,2,28,12:31:55.211,0.164,20,26.9,1.4,2.9,-11.35,0.12,0.12,0.99990,-0.01130,-0.00643,0.00323,0.045,0.0000
2026,2,28,12:31:55.213,0.166,22,28.5,2.0,3.7,-11.31,0.04,0.31,0.99990,-0.01080,-0.00640,0.00330,0.046,0.0000
2026,2,28,12:31:55.215,0.168,24,27.7,0.7,3.7,-11.27,-0.01,-0.08,0.99990,-0.01030,-0.00637,0.00337,0.045,0.0000
2026,2,28,12:31:55.217,0.170,26,26.6,-0.5,3.7,-11.30,-0.06,-0.09,0.99990,-0.00983,-0.00640,0.00343,0.045,0.0000
2026,2,28,12:31:55.219,0.172,28,29.2,0.6,4.0,-11.27,-0.04,0.16,0.99990,-0.00933,-0.00637,0.00350,0.045,0.0000
2026,2,28,12:31:55.221,0.174,30,27.6,-2.4,3.7,-11.22,0.00,-0.06,0.99993,-0.00883,-0.00640,0.00357,0.045,0.0000
2026,2,28,12:31:55.223,0.176,32,29.2,-0.9,3.7,-11.24,-0.02,0.23,0.99993,-0.00833,-0.00643,0.00363,0.045,0.0000
